<?xml version="1.0" encoding="UTF-8" standalone="no"?>
<?xml-stylesheet type='text/xsl' href='define2-0-0.xsl'?>
<ODM xmlns="http://www.cdisc.org/ns/odm/v1.3" xmlns:def="http://www.cdisc.org/ns/def/v2.0" xmlns:xlink="http://www.w3.org/1999/xlink" AsOfDateTime="2019-05-01T12:29:16" CreationDateTime="2019-05-01T12:29:16" FileOID="xbiom/PC201904" FileType="Snapshot" ODMVersion="1.3.2" SourceSystem="Xbiom NonClinical" SourceSystemVersion="3.0.2.001">
  <Study OID="PC201904">
    <GlobalVariables>
      <StudyName>PC201904</StudyName>
      <StudyDescription>13-Week Repeat Dose Toxicity Study on PCDRUG1234 in Rats</StudyDescription>
      <ProtocolName>PC201904</ProtocolName>
    </GlobalVariables>
    <MetaDataVersion Description="13-Week Repeat Dose Toxicity Study on PCDRUG1234 in Rats" Name="PC201904" OID="PC201904" def:DefineVersion="2.0.0" def:StandardName="SEND-IG" def:StandardVersion="3.0">
      <def:ValueListDef OID="VL.SUPPMA.QVAL">
        <ItemRef ItemOID="IT.SUPPMA.QVAL.QNAM.5747" Mandatory="Yes" OrderNumber="1">
          <def:WhereClauseRef WhereClauseOID="WC.5781"/>
        </ItemRef>
      </def:ValueListDef>
      <def:ValueListDef OID="VL.SUPPMI.QVAL">
        <ItemRef ItemOID="IT.SUPPMI.QVAL.QNAM.5748" Mandatory="Yes" OrderNumber="1">
          <def:WhereClauseRef WhereClauseOID="WC.5780"/>
        </ItemRef>
      </def:ValueListDef>
      <def:ValueListDef OID="VL.TS.TSVAL">
        <ItemRef ItemOID="IT.TS.TSVAL.AGEU.5749" Mandatory="Yes" OrderNumber="1">
          <def:WhereClauseRef WhereClauseOID="WC.5746"/>
        </ItemRef>
        <ItemRef ItemOID="IT.TS.TSVAL.SDESIGN.5750" Mandatory="Yes" OrderNumber="2">
          <def:WhereClauseRef WhereClauseOID="WC.5747"/>
        </ItemRef>
        <ItemRef ItemOID="IT.TS.TSVAL.ROUTE.5751" Mandatory="Yes" OrderNumber="3">
          <def:WhereClauseRef WhereClauseOID="WC.5748"/>
        </ItemRef>
        <ItemRef ItemOID="IT.TS.TSVAL.SNDIGVER.5752" Mandatory="Yes" OrderNumber="4">
          <def:WhereClauseRef WhereClauseOID="WC.5749"/>
        </ItemRef>
        <ItemRef ItemOID="IT.TS.TSVAL.SPECIES.5753" Mandatory="Yes" OrderNumber="5">
          <def:WhereClauseRef WhereClauseOID="WC.5750"/>
        </ItemRef>
        <ItemRef ItemOID="IT.TS.TSVAL.STCAT.5754" Mandatory="Yes" OrderNumber="6">
          <def:WhereClauseRef WhereClauseOID="WC.5751"/>
        </ItemRef>
        <ItemRef ItemOID="IT.TS.TSVAL.STRAIN.5755" Mandatory="Yes" OrderNumber="7">
          <def:WhereClauseRef WhereClauseOID="WC.5752"/>
        </ItemRef>
        <ItemRef ItemOID="IT.TS.TSVAL.SSTYP.5756" Mandatory="Yes" OrderNumber="8">
          <def:WhereClauseRef WhereClauseOID="WC.5753"/>
        </ItemRef>
        <ItemRef ItemOID="IT.TS.TSVAL.TFCNTRY.5757" Mandatory="Yes" OrderNumber="9">
          <def:WhereClauseRef WhereClauseOID="WC.5754"/>
        </ItemRef>
        <ItemRef ItemOID="IT.TS.TSVAL.ENVTEMPU.5758" Mandatory="Yes" OrderNumber="10">
          <def:WhereClauseRef WhereClauseOID="WC.5755"/>
        </ItemRef>
        <ItemRef ItemOID="IT.TS.TSVAL.HUMIDTU.5759" Mandatory="Yes" OrderNumber="11">
          <def:WhereClauseRef WhereClauseOID="WC.5756"/>
        </ItemRef>
        <ItemRef ItemOID="IT.TS.TSVAL.MTHTRM.5760" Mandatory="Yes" OrderNumber="12">
          <def:WhereClauseRef WhereClauseOID="WC.5757"/>
        </ItemRef>
        <ItemRef ItemOID="IT.TS.TSVAL.SRANDOM.5761" Mandatory="Yes" OrderNumber="13">
          <def:WhereClauseRef WhereClauseOID="WC.5758"/>
        </ItemRef>
        <ItemRef ItemOID="IT.TS.TSVAL.SEXPOP.5762" Mandatory="Yes" OrderNumber="14">
          <def:WhereClauseRef WhereClauseOID="WC.5759"/>
        </ItemRef>
        <ItemRef ItemOID="IT.TS.TSVAL.TSCNTRY.5763" Mandatory="Yes" OrderNumber="15">
          <def:WhereClauseRef WhereClauseOID="WC.5760"/>
        </ItemRef>
        <ItemRef ItemOID="IT.TS.TSVAL.DOSDUR.5764" Mandatory="Yes" OrderNumber="16">
          <def:WhereClauseRef WhereClauseOID="WC.5761"/>
        </ItemRef>
        <ItemRef ItemOID="IT.TS.TSVAL.EXPENDTC.5765" Mandatory="Yes" OrderNumber="17">
          <def:WhereClauseRef WhereClauseOID="WC.5762"/>
        </ItemRef>
        <ItemRef ItemOID="IT.TS.TSVAL.EXPSTDTC.5766" Mandatory="Yes" OrderNumber="18">
          <def:WhereClauseRef WhereClauseOID="WC.5763"/>
        </ItemRef>
        <ItemRef ItemOID="IT.TS.TSVAL.STSTDTC.5767" Mandatory="Yes" OrderNumber="19">
          <def:WhereClauseRef WhereClauseOID="WC.5764"/>
        </ItemRef>
        <ItemRef ItemOID="IT.TS.TSVAL.TRMSAC.5768" Mandatory="Yes" OrderNumber="20">
          <def:WhereClauseRef WhereClauseOID="WC.5765"/>
        </ItemRef>
        <ItemRef ItemOID="IT.TS.TSVAL.SLENGTH.5772" Mandatory="Yes" OrderNumber="21">
          <def:WhereClauseRef WhereClauseOID="WC.5769"/>
        </ItemRef>
        <ItemRef ItemOID="IT.TS.TSVAL.RECSAC.5773" Mandatory="Yes" OrderNumber="22">
          <def:WhereClauseRef WhereClauseOID="WC.5770"/>
        </ItemRef>
        <ItemRef ItemOID="IT.TS.TSVAL.STENDTC.5774" Mandatory="Yes" OrderNumber="23">
          <def:WhereClauseRef WhereClauseOID="WC.5771"/>
        </ItemRef>
      </def:ValueListDef>
      <def:WhereClauseDef OID="WC.5746">
        <RangeCheck Comparator="EQ" SoftHard="Soft" def:ItemOID="IT.TS.TSPARMCD">
          <CheckValue>AGEU</CheckValue>
        </RangeCheck>
      </def:WhereClauseDef>
      <def:WhereClauseDef OID="WC.5747">
        <RangeCheck Comparator="EQ" SoftHard="Soft" def:ItemOID="IT.TS.TSPARMCD">
          <CheckValue>SDESIGN</CheckValue>
        </RangeCheck>
      </def:WhereClauseDef>
      <def:WhereClauseDef OID="WC.5748">
        <RangeCheck Comparator="EQ" SoftHard="Soft" def:ItemOID="IT.TS.TSPARMCD">
          <CheckValue>ROUTE</CheckValue>
        </RangeCheck>
      </def:WhereClauseDef>
      <def:WhereClauseDef OID="WC.5749">
        <RangeCheck Comparator="EQ" SoftHard="Soft" def:ItemOID="IT.TS.TSPARMCD">
          <CheckValue>SNDIGVER</CheckValue>
        </RangeCheck>
      </def:WhereClauseDef>
      <def:WhereClauseDef OID="WC.5750">
        <RangeCheck Comparator="EQ" SoftHard="Soft" def:ItemOID="IT.TS.TSPARMCD">
          <CheckValue>SPECIES</CheckValue>
        </RangeCheck>
      </def:WhereClauseDef>
      <def:WhereClauseDef OID="WC.5751">
        <RangeCheck Comparator="EQ" SoftHard="Soft" def:ItemOID="IT.TS.TSPARMCD">
          <CheckValue>STCAT</CheckValue>
        </RangeCheck>
      </def:WhereClauseDef>
      <def:WhereClauseDef OID="WC.5752">
        <RangeCheck Comparator="EQ" SoftHard="Soft" def:ItemOID="IT.TS.TSPARMCD">
          <CheckValue>STRAIN</CheckValue>
        </RangeCheck>
      </def:WhereClauseDef>
      <def:WhereClauseDef OID="WC.5753">
        <RangeCheck Comparator="EQ" SoftHard="Soft" def:ItemOID="IT.TS.TSPARMCD">
          <CheckValue>SSTYP</CheckValue>
        </RangeCheck>
      </def:WhereClauseDef>
      <def:WhereClauseDef OID="WC.5754">
        <RangeCheck Comparator="EQ" SoftHard="Soft" def:ItemOID="IT.TS.TSPARMCD">
          <CheckValue>TFCNTRY</CheckValue>
        </RangeCheck>
      </def:WhereClauseDef>
      <def:WhereClauseDef OID="WC.5755">
        <RangeCheck Comparator="EQ" SoftHard="Soft" def:ItemOID="IT.TS.TSPARMCD">
          <CheckValue>ENVTEMPU</CheckValue>
        </RangeCheck>
      </def:WhereClauseDef>
      <def:WhereClauseDef OID="WC.5756">
        <RangeCheck Comparator="EQ" SoftHard="Soft" def:ItemOID="IT.TS.TSPARMCD">
          <CheckValue>HUMIDTU</CheckValue>
        </RangeCheck>
      </def:WhereClauseDef>
      <def:WhereClauseDef OID="WC.5757">
        <RangeCheck Comparator="EQ" SoftHard="Soft" def:ItemOID="IT.TS.TSPARMCD">
          <CheckValue>MTHTRM</CheckValue>
        </RangeCheck>
      </def:WhereClauseDef>
      <def:WhereClauseDef OID="WC.5758">
        <RangeCheck Comparator="EQ" SoftHard="Soft" def:ItemOID="IT.TS.TSPARMCD">
          <CheckValue>SRANDOM</CheckValue>
        </RangeCheck>
      </def:WhereClauseDef>
      <def:WhereClauseDef OID="WC.5759">
        <RangeCheck Comparator="EQ" SoftHard="Soft" def:ItemOID="IT.TS.TSPARMCD">
          <CheckValue>SEXPOP</CheckValue>
        </RangeCheck>
      </def:WhereClauseDef>
      <def:WhereClauseDef OID="WC.5760">
        <RangeCheck Comparator="EQ" SoftHard="Soft" def:ItemOID="IT.TS.TSPARMCD">
          <CheckValue>TSCNTRY</CheckValue>
        </RangeCheck>
      </def:WhereClauseDef>
      <def:WhereClauseDef OID="WC.5761">
        <RangeCheck Comparator="EQ" SoftHard="Soft" def:ItemOID="IT.TS.TSPARMCD">
          <CheckValue>DOSDUR</CheckValue>
        </RangeCheck>
      </def:WhereClauseDef>
      <def:WhereClauseDef OID="WC.5762">
        <RangeCheck Comparator="EQ" SoftHard="Soft" def:ItemOID="IT.TS.TSPARMCD">
          <CheckValue>EXPENDTC</CheckValue>
        </RangeCheck>
      </def:WhereClauseDef>
      <def:WhereClauseDef OID="WC.5763">
        <RangeCheck Comparator="EQ" SoftHard="Soft" def:ItemOID="IT.TS.TSPARMCD">
          <CheckValue>EXPSTDTC</CheckValue>
        </RangeCheck>
      </def:WhereClauseDef>
      <def:WhereClauseDef OID="WC.5764">
        <RangeCheck Comparator="EQ" SoftHard="Soft" def:ItemOID="IT.TS.TSPARMCD">
          <CheckValue>STSTDTC</CheckValue>
        </RangeCheck>
      </def:WhereClauseDef>
      <def:WhereClauseDef OID="WC.5765">
        <RangeCheck Comparator="EQ" SoftHard="Soft" def:ItemOID="IT.TS.TSPARMCD">
          <CheckValue>TRMSAC</CheckValue>
        </RangeCheck>
      </def:WhereClauseDef>
      <def:WhereClauseDef OID="WC.5769">
        <RangeCheck Comparator="EQ" SoftHard="Soft" def:ItemOID="IT.TS.TSPARMCD">
          <CheckValue>SLENGTH</CheckValue>
        </RangeCheck>
      </def:WhereClauseDef>
      <def:WhereClauseDef OID="WC.5770">
        <RangeCheck Comparator="EQ" SoftHard="Soft" def:ItemOID="IT.TS.TSPARMCD">
          <CheckValue>RECSAC</CheckValue>
        </RangeCheck>
      </def:WhereClauseDef>
      <def:WhereClauseDef OID="WC.5771">
        <RangeCheck Comparator="EQ" SoftHard="Soft" def:ItemOID="IT.TS.TSPARMCD">
          <CheckValue>STENDTC</CheckValue>
        </RangeCheck>
      </def:WhereClauseDef>
      <def:WhereClauseDef OID="WC.5780">
        <RangeCheck Comparator="EQ" SoftHard="Soft" def:ItemOID="IT.SUPPMI.QNAM">
          <CheckValue>MIRESMOD</CheckValue>
        </RangeCheck>
      </def:WhereClauseDef>
      <def:WhereClauseDef OID="WC.5781">
        <RangeCheck Comparator="EQ" SoftHard="Soft" def:ItemOID="IT.SUPPMA.QNAM">
          <CheckValue>MARESMOD</CheckValue>
        </RangeCheck>
      </def:WhereClauseDef>
      <ItemGroupDef Domain="TA" IsReferenceData="Yes" Name="TA" OID="IG.TA" Purpose="Tabulation" Repeating="No" SASDatasetName="TA" def:ArchiveLocationID="LF.TA" def:Class="TRIAL DESIGN" def:Structure="One record per planned Element per Arm">
        <Description>
          <TranslatedText xml:lang="en">Trial Arms</TranslatedText>
        </Description>
        <ItemRef ItemOID="IT.STUDYID" KeySequence="1" Mandatory="Yes" OrderNumber="1"/>
        <ItemRef ItemOID="IT.TA.DOMAIN" Mandatory="Yes" OrderNumber="2"/>
        <ItemRef ItemOID="IT.TA.ARMCD" KeySequence="2" Mandatory="Yes" OrderNumber="3"/>
        <ItemRef ItemOID="IT.TA.ARM" Mandatory="Yes" OrderNumber="4"/>
        <ItemRef ItemOID="IT.TA.TAETORD" KeySequence="3" Mandatory="Yes" OrderNumber="5"/>
        <ItemRef ItemOID="IT.TA.ETCD" Mandatory="Yes" OrderNumber="6"/>
        <ItemRef ItemOID="IT.TA.ELEMENT" Mandatory="No" OrderNumber="7"/>
        <ItemRef ItemOID="IT.TA.TABRANCH" Mandatory="No" OrderNumber="8"/>
        <ItemRef ItemOID="IT.TA.EPOCH" Mandatory="No" OrderNumber="9"/>
        <def:leaf ID="LF.TA" xlink:href="ta.xpt">
          <def:title>ta.xpt</def:title>
        </def:leaf>
      </ItemGroupDef>
      <ItemGroupDef Domain="TE" IsReferenceData="Yes" Name="TE" OID="IG.TE" Purpose="Tabulation" Repeating="No" SASDatasetName="TE" def:ArchiveLocationID="LF.TE" def:Class="TRIAL DESIGN" def:Structure="One record per planned element">
        <Description>
          <TranslatedText xml:lang="en">Trial Elements</TranslatedText>
        </Description>
        <ItemRef ItemOID="IT.STUDYID" KeySequence="1" Mandatory="Yes" OrderNumber="1"/>
        <ItemRef ItemOID="IT.TE.DOMAIN" Mandatory="Yes" OrderNumber="2"/>
        <ItemRef ItemOID="IT.TE.ETCD" KeySequence="2" Mandatory="Yes" OrderNumber="3"/>
        <ItemRef ItemOID="IT.TE.ELEMENT" Mandatory="Yes" OrderNumber="4"/>
        <ItemRef ItemOID="IT.TE.TESTRL" Mandatory="Yes" OrderNumber="5"/>
        <ItemRef ItemOID="IT.TE.TEENRL" Mandatory="No" OrderNumber="6"/>
        <ItemRef ItemOID="IT.TE.TEDUR" Mandatory="No" OrderNumber="7"/>
        <def:leaf ID="LF.TE" xlink:href="te.xpt">
          <def:title>te.xpt</def:title>
        </def:leaf>
      </ItemGroupDef>
      <ItemGroupDef Domain="TS" IsReferenceData="Yes" Name="TS" OID="IG.TS" Purpose="Tabulation" Repeating="No" SASDatasetName="TS" def:ArchiveLocationID="LF.TS" def:Class="TRIAL DESIGN" def:Structure="One record per Trial Summary parameter value">
        <Description>
          <TranslatedText xml:lang="en">Trial Summary</TranslatedText>
        </Description>
        <ItemRef ItemOID="IT.STUDYID" KeySequence="1" Mandatory="Yes" OrderNumber="1"/>
        <ItemRef ItemOID="IT.TS.DOMAIN" Mandatory="Yes" OrderNumber="2"/>
        <ItemRef ItemOID="IT.TS.TSSEQ" KeySequence="3" Mandatory="Yes" OrderNumber="3"/>
        <ItemRef ItemOID="IT.TS.TSGRPID" Mandatory="No" OrderNumber="4"/>
        <ItemRef ItemOID="IT.TS.TSPARMCD" KeySequence="2" Mandatory="Yes" OrderNumber="5"/>
        <ItemRef ItemOID="IT.TS.TSPARM" Mandatory="Yes" OrderNumber="6"/>
        <ItemRef ItemOID="IT.TS.TSVAL" Mandatory="Yes" OrderNumber="7"/>
        <def:leaf ID="LF.TS" xlink:href="ts.xpt">
          <def:title>ts.xpt</def:title>
        </def:leaf>
      </ItemGroupDef>
      <ItemGroupDef Domain="TX" IsReferenceData="Yes" Name="TX" OID="IG.TX" Purpose="Tabulation" Repeating="No" SASDatasetName="TX" def:ArchiveLocationID="LF.TX" def:Class="TRIAL DESIGN" def:Structure="One record per Trial Set parameter per Trial Set">
        <Description>
          <TranslatedText xml:lang="en">Trial Sets</TranslatedText>
        </Description>
        <ItemRef ItemOID="IT.STUDYID" KeySequence="1" Mandatory="Yes" OrderNumber="1"/>
        <ItemRef ItemOID="IT.TX.DOMAIN" Mandatory="Yes" OrderNumber="2"/>
        <ItemRef ItemOID="IT.TX.SETCD" KeySequence="2" Mandatory="Yes" OrderNumber="3"/>
        <ItemRef ItemOID="IT.TX.SET" Mandatory="Yes" OrderNumber="4"/>
        <ItemRef ItemOID="IT.TX.TXSEQ" Mandatory="Yes" OrderNumber="5"/>
        <ItemRef ItemOID="IT.TX.TXPARMCD" KeySequence="3" Mandatory="Yes" OrderNumber="6"/>
        <ItemRef ItemOID="IT.TX.TXPARM" Mandatory="Yes" OrderNumber="7"/>
        <ItemRef ItemOID="IT.TX.TXVAL" Mandatory="Yes" OrderNumber="8"/>
        <def:leaf ID="LF.TX" xlink:href="tx.xpt">
          <def:title>tx.xpt</def:title>
        </def:leaf>
      </ItemGroupDef>
      <ItemGroupDef Domain="CO" IsReferenceData="No" Name="CO" OID="IG.CO" Purpose="Tabulation" Repeating="Yes" SASDatasetName="CO" def:ArchiveLocationID="LF.CO" def:Class="SPECIAL PURPOSE" def:Structure="One record per comment">
        <Description>
          <TranslatedText xml:lang="en">Comments</TranslatedText>
        </Description>
        <ItemRef ItemOID="IT.STUDYID" KeySequence="1" Mandatory="Yes" OrderNumber="1"/>
        <ItemRef ItemOID="IT.CO.DOMAIN" Mandatory="Yes" OrderNumber="2"/>
        <ItemRef ItemOID="IT.CO.RDOMAIN" Mandatory="No" OrderNumber="3"/>
        <ItemRef ItemOID="IT.CO.USUBJID" Mandatory="No" OrderNumber="4"/>
        <ItemRef ItemOID="IT.CO.COSEQ" KeySequence="2" Mandatory="Yes" OrderNumber="5"/>
        <ItemRef ItemOID="IT.CO.IDVAR" Mandatory="No" OrderNumber="6"/>
        <ItemRef ItemOID="IT.CO.IDVARVAL" Mandatory="No" OrderNumber="7"/>
        <ItemRef ItemOID="IT.CO.COVAL" Mandatory="Yes" OrderNumber="8"/>
        <ItemRef ItemOID="IT.CO.CODTC" Mandatory="No" OrderNumber="9"/>
        <def:leaf ID="LF.CO" xlink:href="co.xpt">
          <def:title>co.xpt</def:title>
        </def:leaf>
      </ItemGroupDef>
      <ItemGroupDef Domain="DM" IsReferenceData="No" Name="DM" OID="IG.DM" Purpose="Tabulation" Repeating="No" SASDatasetName="DM" def:ArchiveLocationID="LF.DM" def:Class="SPECIAL PURPOSE" def:Structure="One record per subject">
        <Description>
          <TranslatedText xml:lang="en">Demographics</TranslatedText>
        </Description>
        <ItemRef ItemOID="IT.STUDYID" KeySequence="1" Mandatory="Yes" OrderNumber="1"/>
        <ItemRef ItemOID="IT.DM.DOMAIN" Mandatory="Yes" OrderNumber="2"/>
        <ItemRef ItemOID="IT.DM.USUBJID" KeySequence="2" Mandatory="Yes" OrderNumber="3"/>
        <ItemRef ItemOID="IT.DM.SUBJID" Mandatory="Yes" OrderNumber="4"/>
        <ItemRef ItemOID="IT.DM.RFSTDTC" Mandatory="Yes" OrderNumber="5"/>
        <ItemRef ItemOID="IT.DM.RFENDTC" Mandatory="No" OrderNumber="6"/>
        <ItemRef ItemOID="IT.DM.AGETXT" Mandatory="No" OrderNumber="7"/>
        <ItemRef ItemOID="IT.DM.AGEU" Mandatory="No" OrderNumber="8"/>
        <ItemRef ItemOID="IT.DM.SEX" Mandatory="Yes" OrderNumber="9"/>
        <ItemRef ItemOID="IT.DM.ARMCD" Mandatory="No" OrderNumber="10"/>
        <ItemRef ItemOID="IT.DM.ARM" Mandatory="No" OrderNumber="11"/>
        <ItemRef ItemOID="IT.DM.SETCD" Mandatory="Yes" OrderNumber="12"/>
        <def:leaf ID="LF.DM" xlink:href="dm.xpt">
          <def:title>dm.xpt</def:title>
        </def:leaf>
      </ItemGroupDef>
      <ItemGroupDef Domain="SE" IsReferenceData="No" Name="SE" OID="IG.SE" Purpose="Tabulation" Repeating="Yes" SASDatasetName="SE" def:ArchiveLocationID="LF.SE" def:Class="SPECIAL PURPOSE" def:Structure="One record per element experienced per subject">
        <Description>
          <TranslatedText xml:lang="en">Subject Elements</TranslatedText>
        </Description>
        <ItemRef ItemOID="IT.STUDYID" KeySequence="1" Mandatory="Yes" OrderNumber="1"/>
        <ItemRef ItemOID="IT.SE.DOMAIN" Mandatory="Yes" OrderNumber="2"/>
        <ItemRef ItemOID="IT.SE.USUBJID" KeySequence="2" Mandatory="Yes" OrderNumber="3"/>
        <ItemRef ItemOID="IT.SE.SESEQ" Mandatory="Yes" OrderNumber="4"/>
        <ItemRef ItemOID="IT.SE.ETCD" KeySequence="3" Mandatory="Yes" OrderNumber="5"/>
        <ItemRef ItemOID="IT.SE.ELEMENT" Mandatory="No" OrderNumber="6"/>
        <ItemRef ItemOID="IT.SE.SESTDTC" KeySequence="4" Mandatory="Yes" OrderNumber="7"/>
        <ItemRef ItemOID="IT.SE.SEENDTC" Mandatory="No" OrderNumber="8"/>
        <def:leaf ID="LF.SE" xlink:href="se.xpt">
          <def:title>se.xpt</def:title>
        </def:leaf>
      </ItemGroupDef>
      <ItemGroupDef Domain="EX" IsReferenceData="No" Name="EX" OID="IG.EX" Purpose="Tabulation" Repeating="Yes" SASDatasetName="EX" def:ArchiveLocationID="LF.EX" def:Class="INTERVENTIONS" def:Structure="One record per constant dosing interval per treatment per subject or pool">
        <Description>
          <TranslatedText xml:lang="en">Exposure</TranslatedText>
        </Description>
        <ItemRef ItemOID="IT.STUDYID" KeySequence="1" Mandatory="Yes" OrderNumber="1"/>
        <ItemRef ItemOID="IT.EX.DOMAIN" Mandatory="Yes" OrderNumber="2"/>
        <ItemRef ItemOID="IT.EX.USUBJID" KeySequence="2" Mandatory="No" OrderNumber="3"/>
        <ItemRef ItemOID="IT.EX.EXSEQ" Mandatory="Yes" MethodOID="MT.--.--SEQ" OrderNumber="4"/>
        <ItemRef ItemOID="IT.EX.EXTRT" KeySequence="3" Mandatory="Yes" OrderNumber="5"/>
        <ItemRef ItemOID="IT.EX.EXDOSE" Mandatory="No" OrderNumber="6"/>
        <ItemRef ItemOID="IT.EX.EXDOSU" Mandatory="No" OrderNumber="7"/>
        <ItemRef ItemOID="IT.EX.EXDOSFRM" Mandatory="No" OrderNumber="8"/>
        <ItemRef ItemOID="IT.EX.EXDOSFRQ" Mandatory="Yes" OrderNumber="9"/>
        <ItemRef ItemOID="IT.EX.EXROUTE" Mandatory="Yes" OrderNumber="10"/>
        <ItemRef ItemOID="IT.EX.EXLOT" Mandatory="No" OrderNumber="11"/>
        <ItemRef ItemOID="IT.EX.EXTRTV" Mandatory="No" OrderNumber="12"/>
        <ItemRef ItemOID="IT.EX.EXSTDTC" KeySequence="4" Mandatory="No" OrderNumber="13"/>
        <ItemRef ItemOID="IT.EX.EXENDTC" Mandatory="No" OrderNumber="14"/>
        <ItemRef ItemOID="IT.EX.EXSTDY" Mandatory="No" OrderNumber="15"/>
        <ItemRef ItemOID="IT.EX.EXENDY" Mandatory="No" OrderNumber="16"/>
        <def:leaf ID="LF.EX" xlink:href="ex.xpt">
          <def:title>ex.xpt</def:title>
        </def:leaf>
      </ItemGroupDef>
      <ItemGroupDef Domain="DS" IsReferenceData="No" Name="DS" OID="IG.DS" Purpose="Tabulation" Repeating="Yes" SASDatasetName="DS" def:ArchiveLocationID="LF.DS" def:Class="EVENTS" def:Structure="One record per subject">
        <Description>
          <TranslatedText xml:lang="en">Disposition</TranslatedText>
        </Description>
        <ItemRef ItemOID="IT.STUDYID" KeySequence="1" Mandatory="Yes" OrderNumber="1"/>
        <ItemRef ItemOID="IT.DS.DOMAIN" Mandatory="Yes" OrderNumber="2"/>
        <ItemRef ItemOID="IT.DS.USUBJID" KeySequence="2" Mandatory="Yes" OrderNumber="3"/>
        <ItemRef ItemOID="IT.DS.DSSEQ" Mandatory="Yes" MethodOID="MT.--.--SEQ" OrderNumber="4"/>
        <ItemRef ItemOID="IT.DS.DSTERM" Mandatory="Yes" OrderNumber="5"/>
        <ItemRef ItemOID="IT.DS.DSDECOD" Mandatory="Yes" OrderNumber="6"/>
        <ItemRef ItemOID="IT.DS.VISITDY" Mandatory="No" OrderNumber="7"/>
        <ItemRef ItemOID="IT.DS.DSSTDTC" Mandatory="Yes" OrderNumber="8"/>
        <ItemRef ItemOID="IT.DS.DSSTDY" Mandatory="No" OrderNumber="9"/>
        <def:leaf ID="LF.DS" xlink:href="ds.xpt">
          <def:title>ds.xpt</def:title>
        </def:leaf>
      </ItemGroupDef>
      <ItemGroupDef Domain="BG" IsReferenceData="No" Name="BG" OID="IG.BG" Purpose="Tabulation" Repeating="Yes" SASDatasetName="BG" def:ArchiveLocationID="LF.BG" def:Class="FINDINGS" def:Structure="One record per test per interval per subject">
        <Description>
          <TranslatedText xml:lang="en">Body Weight Gains</TranslatedText>
        </Description>
        <ItemRef ItemOID="IT.STUDYID" KeySequence="1" Mandatory="Yes" OrderNumber="1"/>
        <ItemRef ItemOID="IT.BG.DOMAIN" Mandatory="Yes" OrderNumber="2"/>
        <ItemRef ItemOID="IT.BG.USUBJID" KeySequence="2" Mandatory="Yes" OrderNumber="3"/>
        <ItemRef ItemOID="IT.BG.BGSEQ" Mandatory="Yes" MethodOID="MT.--.--SEQ" OrderNumber="4"/>
        <ItemRef ItemOID="IT.BG.BGTESTCD" KeySequence="3" Mandatory="Yes" OrderNumber="5"/>
        <ItemRef ItemOID="IT.BG.BGTEST" Mandatory="Yes" OrderNumber="6"/>
        <ItemRef ItemOID="IT.BG.BGORRES" Mandatory="No" OrderNumber="7"/>
        <ItemRef ItemOID="IT.BG.BGORRESU" Mandatory="No" OrderNumber="8"/>
        <ItemRef ItemOID="IT.BG.BGSTRESC" Mandatory="No" OrderNumber="9"/>
        <ItemRef ItemOID="IT.BG.BGSTRESN" Mandatory="No" OrderNumber="10"/>
        <ItemRef ItemOID="IT.BG.BGSTRESU" Mandatory="No" OrderNumber="11"/>
        <ItemRef ItemOID="IT.BG.BGDTC" KeySequence="4" Mandatory="No" OrderNumber="12"/>
        <ItemRef ItemOID="IT.BG.BGENDTC" KeySequence="5" Mandatory="No" OrderNumber="13"/>
        <ItemRef ItemOID="IT.BG.BGDY" Mandatory="No" OrderNumber="14"/>
        <ItemRef ItemOID="IT.BG.BGENDY" Mandatory="No" OrderNumber="15"/>
        <def:leaf ID="LF.BG" xlink:href="bg.xpt">
          <def:title>bg.xpt</def:title>
        </def:leaf>
      </ItemGroupDef>
      <ItemGroupDef Domain="BW" IsReferenceData="No" Name="BW" OID="IG.BW" Purpose="Tabulation" Repeating="Yes" SASDatasetName="BW" def:ArchiveLocationID="LF.BW" def:Class="FINDINGS" def:Structure="One record per test per observation time per subject">
        <Description>
          <TranslatedText xml:lang="en">Body Weights</TranslatedText>
        </Description>
        <ItemRef ItemOID="IT.STUDYID" KeySequence="1" Mandatory="Yes" OrderNumber="1"/>
        <ItemRef ItemOID="IT.BW.DOMAIN" Mandatory="Yes" OrderNumber="2"/>
        <ItemRef ItemOID="IT.BW.USUBJID" KeySequence="2" Mandatory="Yes" OrderNumber="3"/>
        <ItemRef ItemOID="IT.BW.BWSEQ" Mandatory="Yes" MethodOID="MT.--.--SEQ" OrderNumber="4"/>
        <ItemRef ItemOID="IT.BW.BWTESTCD" KeySequence="3" Mandatory="Yes" OrderNumber="5"/>
        <ItemRef ItemOID="IT.BW.BWTEST" Mandatory="Yes" OrderNumber="6"/>
        <ItemRef ItemOID="IT.BW.BWORRES" Mandatory="No" OrderNumber="7"/>
        <ItemRef ItemOID="IT.BW.BWORRESU" Mandatory="No" OrderNumber="8"/>
        <ItemRef ItemOID="IT.BW.BWSTRESC" Mandatory="No" OrderNumber="9"/>
        <ItemRef ItemOID="IT.BW.BWSTRESN" Mandatory="No" OrderNumber="10"/>
        <ItemRef ItemOID="IT.BW.BWSTRESU" Mandatory="No" OrderNumber="11"/>
        <ItemRef ItemOID="IT.BW.BWBLFL" Mandatory="No" OrderNumber="12"/>
        <ItemRef ItemOID="IT.BW.VISITDY" Mandatory="No" OrderNumber="13"/>
        <ItemRef ItemOID="IT.BW.BWDTC" KeySequence="4" Mandatory="No" OrderNumber="14"/>
        <ItemRef ItemOID="IT.BW.BWDY" Mandatory="No" OrderNumber="15"/>
        <def:leaf ID="LF.BW" xlink:href="bw.xpt">
          <def:title>bw.xpt</def:title>
        </def:leaf>
      </ItemGroupDef>
      <ItemGroupDef Domain="CL" IsReferenceData="No" Name="CL" OID="IG.CL" Purpose="Tabulation" Repeating="Yes" SASDatasetName="CL" def:ArchiveLocationID="LF.CL" def:Class="FINDINGS" def:Structure="One record per finding per observation time per subject or pool">
        <Description>
          <TranslatedText xml:lang="en">Clinical Observations</TranslatedText>
        </Description>
        <ItemRef ItemOID="IT.STUDYID" KeySequence="1" Mandatory="Yes" OrderNumber="1"/>
        <ItemRef ItemOID="IT.CL.DOMAIN" Mandatory="Yes" OrderNumber="2"/>
        <ItemRef ItemOID="IT.CL.USUBJID" KeySequence="2" Mandatory="No" OrderNumber="3"/>
        <ItemRef ItemOID="IT.CL.CLSEQ" Mandatory="Yes" MethodOID="MT.--.--SEQ" OrderNumber="4"/>
        <ItemRef ItemOID="IT.CL.CLTESTCD" KeySequence="3" Mandatory="Yes" OrderNumber="5"/>
        <ItemRef ItemOID="IT.CL.CLTEST" Mandatory="Yes" OrderNumber="6"/>
        <ItemRef ItemOID="IT.CL.CLCAT" KeySequence="4" Mandatory="Yes" OrderNumber="7"/>
        <ItemRef ItemOID="IT.CL.CLORRES" KeySequence="5" Mandatory="No" OrderNumber="8"/>
        <ItemRef ItemOID="IT.CL.CLSTRESC" Mandatory="No" OrderNumber="9"/>
        <ItemRef ItemOID="IT.CL.CLLOC" KeySequence="6" Mandatory="No" OrderNumber="10"/>
        <ItemRef ItemOID="IT.CL.VISITDY" Mandatory="No" OrderNumber="11"/>
        <ItemRef ItemOID="IT.CL.CLDTC" KeySequence="7" Mandatory="No" OrderNumber="12"/>
        <ItemRef ItemOID="IT.CL.CLDY" Mandatory="No" OrderNumber="13"/>
        <def:leaf ID="LF.CL" xlink:href="cl.xpt">
          <def:title>cl.xpt</def:title>
        </def:leaf>
      </ItemGroupDef>
      <ItemGroupDef Domain="DD" IsReferenceData="No" Name="DD" OID="IG.DD" Purpose="Tabulation" Repeating="Yes" SASDatasetName="DD" def:ArchiveLocationID="LF.DD" def:Class="FINDINGS" def:Structure="One record per diagnosis per subject (for unscheduled deaths only)">
        <Description>
          <TranslatedText xml:lang="en">Death Diagnosis</TranslatedText>
        </Description>
        <ItemRef ItemOID="IT.STUDYID" KeySequence="1" Mandatory="Yes" OrderNumber="1"/>
        <ItemRef ItemOID="IT.DD.DOMAIN" Mandatory="Yes" OrderNumber="2"/>
        <ItemRef ItemOID="IT.DD.USUBJID" KeySequence="2" Mandatory="Yes" OrderNumber="3"/>
        <ItemRef ItemOID="IT.DD.DDSEQ" Mandatory="Yes" MethodOID="MT.--.--SEQ" OrderNumber="4"/>
        <ItemRef ItemOID="IT.DD.DDTESTCD" Mandatory="Yes" OrderNumber="5"/>
        <ItemRef ItemOID="IT.DD.DDTEST" Mandatory="Yes" OrderNumber="6"/>
        <ItemRef ItemOID="IT.DD.DDORRES" Mandatory="Yes" OrderNumber="7"/>
        <ItemRef ItemOID="IT.DD.DDSTRESC" Mandatory="No" OrderNumber="8"/>
        <ItemRef ItemOID="IT.DD.DDRESCAT" Mandatory="No" OrderNumber="9"/>
        <ItemRef ItemOID="IT.DD.DDDY" Mandatory="No" OrderNumber="10"/>
        <def:leaf ID="LF.DD" xlink:href="dd.xpt">
          <def:title>dd.xpt</def:title>
        </def:leaf>
      </ItemGroupDef>
      <ItemGroupDef Domain="EG" IsReferenceData="No" Name="EG" OID="IG.EG" Purpose="Tabulation" Repeating="Yes" SASDatasetName="EG" def:ArchiveLocationID="LF.EG" def:Class="FINDINGS" def:Structure="One record per test per observation time per subject">
        <Description>
          <TranslatedText xml:lang="en">ECG Test Results</TranslatedText>
        </Description>
        <ItemRef ItemOID="IT.STUDYID" KeySequence="1" Mandatory="Yes" OrderNumber="1"/>
        <ItemRef ItemOID="IT.EG.DOMAIN" Mandatory="Yes" OrderNumber="2"/>
        <ItemRef ItemOID="IT.EG.USUBJID" KeySequence="2" Mandatory="Yes" OrderNumber="3"/>
        <ItemRef ItemOID="IT.EG.EGSEQ" Mandatory="Yes" MethodOID="MT.--.--SEQ" OrderNumber="4"/>
        <ItemRef ItemOID="IT.EG.EGTESTCD" KeySequence="3" Mandatory="Yes" OrderNumber="5"/>
        <ItemRef ItemOID="IT.EG.EGTEST" Mandatory="Yes" OrderNumber="6"/>
        <ItemRef ItemOID="IT.EG.EGPOS" Mandatory="No" OrderNumber="7"/>
        <ItemRef ItemOID="IT.EG.EGORRES" Mandatory="No" OrderNumber="8"/>
        <ItemRef ItemOID="IT.EG.EGORRESU" Mandatory="No" OrderNumber="9"/>
        <ItemRef ItemOID="IT.EG.EGSTRESC" Mandatory="No" OrderNumber="10"/>
        <ItemRef ItemOID="IT.EG.EGSTRESN" Mandatory="No" OrderNumber="11"/>
        <ItemRef ItemOID="IT.EG.EGSTRESU" Mandatory="No" OrderNumber="12"/>
        <ItemRef ItemOID="IT.EG.EGLEAD" Mandatory="No" OrderNumber="13"/>
        <ItemRef ItemOID="IT.EG.EGMETHOD" Mandatory="No" OrderNumber="14"/>
        <ItemRef ItemOID="IT.EG.EGCSTATE" Mandatory="No" OrderNumber="15"/>
        <ItemRef ItemOID="IT.EG.EGBLFL" Mandatory="No" OrderNumber="16"/>
        <ItemRef ItemOID="IT.EG.VISITDY" Mandatory="No" OrderNumber="17"/>
        <ItemRef ItemOID="IT.EG.EGDTC" KeySequence="4" Mandatory="No" OrderNumber="18"/>
        <ItemRef ItemOID="IT.EG.EGDY" Mandatory="No" OrderNumber="19"/>
        <def:leaf ID="LF.EG" xlink:href="eg.xpt">
          <def:title>eg.xpt</def:title>
        </def:leaf>
      </ItemGroupDef>
      <ItemGroupDef Domain="FW" IsReferenceData="No" Name="FW" OID="IG.FW" Purpose="Tabulation" Repeating="Yes" SASDatasetName="FW" def:ArchiveLocationID="LF.FW" def:Class="FINDINGS" def:Structure="One record per test per interval per subject or pool">
        <Description>
          <TranslatedText xml:lang="en">Food and Water Consumption</TranslatedText>
        </Description>
        <ItemRef ItemOID="IT.STUDYID" KeySequence="1" Mandatory="Yes" OrderNumber="1"/>
        <ItemRef ItemOID="IT.FW.DOMAIN" Mandatory="Yes" OrderNumber="2"/>
        <ItemRef ItemOID="IT.FW.USUBJID" KeySequence="2" Mandatory="No" OrderNumber="3"/>
        <ItemRef ItemOID="IT.FW.FWSEQ" Mandatory="Yes" MethodOID="MT.--.--SEQ" OrderNumber="4"/>
        <ItemRef ItemOID="IT.FW.FWTESTCD" KeySequence="3" Mandatory="Yes" OrderNumber="5"/>
        <ItemRef ItemOID="IT.FW.FWTEST" Mandatory="Yes" OrderNumber="6"/>
        <ItemRef ItemOID="IT.FW.FWORRES" Mandatory="No" OrderNumber="7"/>
        <ItemRef ItemOID="IT.FW.FWORRESU" Mandatory="No" OrderNumber="8"/>
        <ItemRef ItemOID="IT.FW.FWSTRESC" Mandatory="No" OrderNumber="9"/>
        <ItemRef ItemOID="IT.FW.FWSTRESN" Mandatory="No" OrderNumber="10"/>
        <ItemRef ItemOID="IT.FW.FWSTRESU" Mandatory="No" OrderNumber="11"/>
        <ItemRef ItemOID="IT.FW.FWDTC" KeySequence="4" Mandatory="No" OrderNumber="12"/>
        <ItemRef ItemOID="IT.FW.FWENDTC" KeySequence="5" Mandatory="No" OrderNumber="13"/>
        <ItemRef ItemOID="IT.FW.FWDY" Mandatory="No" OrderNumber="14"/>
        <ItemRef ItemOID="IT.FW.FWENDY" Mandatory="No" OrderNumber="15"/>
        <def:leaf ID="LF.FW" xlink:href="fw.xpt">
          <def:title>fw.xpt</def:title>
        </def:leaf>
      </ItemGroupDef>
      <ItemGroupDef Domain="LB" IsReferenceData="No" Name="LB" OID="IG.LB" Purpose="Tabulation" Repeating="Yes" SASDatasetName="LB" def:ArchiveLocationID="LF.LB" def:Class="FINDINGS" def:Structure="One record per test per specimen per observation time per subject or pool">
        <Description>
          <TranslatedText xml:lang="en">Laboratory Tests Results</TranslatedText>
        </Description>
        <ItemRef ItemOID="IT.STUDYID" KeySequence="1" Mandatory="Yes" OrderNumber="1"/>
        <ItemRef ItemOID="IT.LB.DOMAIN" Mandatory="Yes" OrderNumber="2"/>
        <ItemRef ItemOID="IT.LB.USUBJID" KeySequence="2" Mandatory="No" OrderNumber="3"/>
        <ItemRef ItemOID="IT.LB.LBSEQ" Mandatory="Yes" MethodOID="MT.--.--SEQ" OrderNumber="4"/>
        <ItemRef ItemOID="IT.LB.LBTESTCD" KeySequence="3" Mandatory="Yes" OrderNumber="5"/>
        <ItemRef ItemOID="IT.LB.LBTEST" Mandatory="Yes" OrderNumber="6"/>
        <ItemRef ItemOID="IT.LB.LBCAT" Mandatory="No" OrderNumber="7"/>
        <ItemRef ItemOID="IT.LB.LBORRES" Mandatory="No" OrderNumber="8"/>
        <ItemRef ItemOID="IT.LB.LBORRESU" Mandatory="No" OrderNumber="9"/>
        <ItemRef ItemOID="IT.LB.LBSTRESC" Mandatory="No" OrderNumber="10"/>
        <ItemRef ItemOID="IT.LB.LBSTRESN" Mandatory="No" OrderNumber="11"/>
        <ItemRef ItemOID="IT.LB.LBSTRESU" Mandatory="No" OrderNumber="12"/>
        <ItemRef ItemOID="IT.LB.LBSTAT" Mandatory="No" OrderNumber="13"/>
        <ItemRef ItemOID="IT.LB.LBREASND" Mandatory="No" OrderNumber="14"/>
        <ItemRef ItemOID="IT.LB.LBSPEC" KeySequence="4" Mandatory="No" OrderNumber="15"/>
        <ItemRef ItemOID="IT.LB.LBMETHOD" Mandatory="No" OrderNumber="16"/>
        <ItemRef ItemOID="IT.LB.LBBLFL" Mandatory="No" OrderNumber="17"/>
        <ItemRef ItemOID="IT.LB.VISITDY" Mandatory="No" OrderNumber="18"/>
        <ItemRef ItemOID="IT.LB.LBDTC" KeySequence="5" Mandatory="No" OrderNumber="19"/>
        <ItemRef ItemOID="IT.LB.LBDY" Mandatory="No" OrderNumber="20"/>
        <def:leaf ID="LF.LB" xlink:href="lb.xpt">
          <def:title>lb.xpt</def:title>
        </def:leaf>
      </ItemGroupDef>
      <ItemGroupDef Domain="MA" IsReferenceData="No" Name="MA" OID="IG.MA" Purpose="Tabulation" Repeating="Yes" SASDatasetName="MA" def:ArchiveLocationID="LF.MA" def:Class="FINDINGS" def:Structure="One record per finding per specimen per  subject">
        <Description>
          <TranslatedText xml:lang="en">Macroscopic Findings</TranslatedText>
        </Description>
        <ItemRef ItemOID="IT.STUDYID" KeySequence="1" Mandatory="Yes" OrderNumber="1"/>
        <ItemRef ItemOID="IT.MA.DOMAIN" Mandatory="Yes" OrderNumber="2"/>
        <ItemRef ItemOID="IT.MA.USUBJID" KeySequence="2" Mandatory="Yes" OrderNumber="3"/>
        <ItemRef ItemOID="IT.MA.MASEQ" Mandatory="Yes" MethodOID="MT.--.--SEQ" OrderNumber="4"/>
        <ItemRef ItemOID="IT.MA.MASPID" Mandatory="No" OrderNumber="5"/>
        <ItemRef ItemOID="IT.MA.MATESTCD" KeySequence="3" Mandatory="Yes" OrderNumber="6"/>
        <ItemRef ItemOID="IT.MA.MATEST" Mandatory="Yes" OrderNumber="7"/>
        <ItemRef ItemOID="IT.MA.MAORRES" KeySequence="4" Mandatory="No" OrderNumber="8"/>
        <ItemRef ItemOID="IT.MA.MASTRESC" Mandatory="No" OrderNumber="9"/>
        <ItemRef ItemOID="IT.MA.MASPEC" KeySequence="5" Mandatory="No" OrderNumber="10"/>
        <ItemRef ItemOID="IT.MA.MAANTREG" KeySequence="6" Mandatory="No" OrderNumber="11"/>
        <ItemRef ItemOID="IT.MA.MALAT" KeySequence="7" Mandatory="No" OrderNumber="12"/>
        <ItemRef ItemOID="IT.MA.MASEV" Mandatory="No" OrderNumber="13"/>
        <ItemRef ItemOID="IT.MA.MADY" Mandatory="No" OrderNumber="14"/>
        <def:leaf ID="LF.MA" xlink:href="ma.xpt">
          <def:title>ma.xpt</def:title>
        </def:leaf>
      </ItemGroupDef>
      <ItemGroupDef Domain="MI" IsReferenceData="No" Name="MI" OID="IG.MI" Purpose="Tabulation" Repeating="Yes" SASDatasetName="MI" def:ArchiveLocationID="LF.MI" def:Class="FINDINGS" def:Structure="One record per finding per specimen per subject">
        <Description>
          <TranslatedText xml:lang="en">Microscopic Findings</TranslatedText>
        </Description>
        <ItemRef ItemOID="IT.STUDYID" KeySequence="1" Mandatory="Yes" OrderNumber="1"/>
        <ItemRef ItemOID="IT.MI.DOMAIN" Mandatory="Yes" OrderNumber="2"/>
        <ItemRef ItemOID="IT.MI.USUBJID" KeySequence="2" Mandatory="Yes" OrderNumber="3"/>
        <ItemRef ItemOID="IT.MI.MISEQ" Mandatory="Yes" MethodOID="MT.--.--SEQ" OrderNumber="4"/>
        <ItemRef ItemOID="IT.MI.MISPID" Mandatory="No" OrderNumber="5"/>
        <ItemRef ItemOID="IT.MI.MITESTCD" KeySequence="3" Mandatory="Yes" OrderNumber="6"/>
        <ItemRef ItemOID="IT.MI.MITEST" Mandatory="Yes" OrderNumber="7"/>
        <ItemRef ItemOID="IT.MI.MIORRES" Mandatory="No" OrderNumber="8"/>
        <ItemRef ItemOID="IT.MI.MISTRESC" KeySequence="4" Mandatory="No" OrderNumber="9"/>
        <ItemRef ItemOID="IT.MI.MIRESCAT" Mandatory="No" OrderNumber="10"/>
        <ItemRef ItemOID="IT.MI.MISTAT" Mandatory="No" OrderNumber="11"/>
        <ItemRef ItemOID="IT.MI.MIREASND" Mandatory="No" OrderNumber="12"/>
        <ItemRef ItemOID="IT.MI.MISPEC" KeySequence="5" Mandatory="Yes" OrderNumber="13"/>
        <ItemRef ItemOID="IT.MI.MIANTREG" KeySequence="6" Mandatory="No" OrderNumber="14"/>
        <ItemRef ItemOID="IT.MI.MISPCCND" Mandatory="No" OrderNumber="15"/>
        <ItemRef ItemOID="IT.MI.MISPCUFL" Mandatory="No" OrderNumber="16"/>
        <ItemRef ItemOID="IT.MI.MILAT" KeySequence="7" Mandatory="No" OrderNumber="17"/>
        <ItemRef ItemOID="IT.MI.MIDIR" KeySequence="8" Mandatory="No" OrderNumber="18"/>
        <ItemRef ItemOID="IT.MI.MISEV" Mandatory="No" OrderNumber="19"/>
        <ItemRef ItemOID="IT.MI.MIDTHREL" Mandatory="No" OrderNumber="20"/>
        <ItemRef ItemOID="IT.MI.MIDY" Mandatory="No" OrderNumber="21"/>
        <def:leaf ID="LF.MI" xlink:href="mi.xpt">
          <def:title>mi.xpt</def:title>
        </def:leaf>
      </ItemGroupDef>
      <ItemGroupDef Domain="OM" IsReferenceData="No" Name="OM" OID="IG.OM" Purpose="Tabulation" Repeating="Yes" SASDatasetName="OM" def:ArchiveLocationID="LF.OM" def:Class="FINDINGS" def:Structure="One record per test per specimen per subject">
        <Description>
          <TranslatedText xml:lang="en">Organ Measurements</TranslatedText>
        </Description>
        <ItemRef ItemOID="IT.STUDYID" KeySequence="1" Mandatory="Yes" OrderNumber="1"/>
        <ItemRef ItemOID="IT.OM.DOMAIN" Mandatory="Yes" OrderNumber="2"/>
        <ItemRef ItemOID="IT.OM.USUBJID" KeySequence="2" Mandatory="Yes" OrderNumber="3"/>
        <ItemRef ItemOID="IT.OM.OMSEQ" Mandatory="Yes" MethodOID="MT.--.--SEQ" OrderNumber="4"/>
        <ItemRef ItemOID="IT.OM.OMTESTCD" KeySequence="3" Mandatory="Yes" OrderNumber="5"/>
        <ItemRef ItemOID="IT.OM.OMTEST" Mandatory="Yes" OrderNumber="6"/>
        <ItemRef ItemOID="IT.OM.OMORRES" Mandatory="No" OrderNumber="7"/>
        <ItemRef ItemOID="IT.OM.OMORRESU" Mandatory="No" OrderNumber="8"/>
        <ItemRef ItemOID="IT.OM.OMSTRESC" Mandatory="No" OrderNumber="9"/>
        <ItemRef ItemOID="IT.OM.OMSTRESN" Mandatory="No" OrderNumber="10"/>
        <ItemRef ItemOID="IT.OM.OMSTRESU" Mandatory="No" OrderNumber="11"/>
        <ItemRef ItemOID="IT.OM.OMSPEC" KeySequence="4" Mandatory="Yes" OrderNumber="12"/>
        <ItemRef ItemOID="IT.OM.OMDTC" Mandatory="No" OrderNumber="13"/>
        <ItemRef ItemOID="IT.OM.OMDY" Mandatory="No" OrderNumber="14"/>
        <def:leaf ID="LF.OM" xlink:href="om.xpt">
          <def:title>om.xpt</def:title>
        </def:leaf>
      </ItemGroupDef>
      <ItemGroupDef Domain="PC" IsReferenceData="No" Name="PC" OID="IG.PC" Purpose="Tabulation" Repeating="Yes" SASDatasetName="PC" def:ArchiveLocationID="LF.PC" def:Class="FINDINGS" def:Structure="One record per test per specimen per observation time per subject or pool">
        <Description>
          <TranslatedText xml:lang="en">Pharmacokinetics Concentrations</TranslatedText>
        </Description>
        <ItemRef ItemOID="IT.STUDYID" KeySequence="1" Mandatory="Yes" OrderNumber="1"/>
        <ItemRef ItemOID="IT.PC.DOMAIN" Mandatory="Yes" OrderNumber="2"/>
        <ItemRef ItemOID="IT.PC.USUBJID" KeySequence="2" Mandatory="No" OrderNumber="3"/>
        <ItemRef ItemOID="IT.PC.PCSEQ" Mandatory="Yes" MethodOID="MT.--.--SEQ" OrderNumber="4"/>
        <ItemRef ItemOID="IT.PC.PCTESTCD" KeySequence="3" Mandatory="Yes" OrderNumber="5"/>
        <ItemRef ItemOID="IT.PC.PCTEST" Mandatory="Yes" OrderNumber="6"/>
        <ItemRef ItemOID="IT.PC.PCORRES" Mandatory="No" OrderNumber="7"/>
        <ItemRef ItemOID="IT.PC.PCORRESU" Mandatory="No" OrderNumber="8"/>
        <ItemRef ItemOID="IT.PC.PCSTRESC" Mandatory="No" OrderNumber="9"/>
        <ItemRef ItemOID="IT.PC.PCSTRESN" Mandatory="No" OrderNumber="10"/>
        <ItemRef ItemOID="IT.PC.PCSTRESU" Mandatory="No" OrderNumber="11"/>
        <ItemRef ItemOID="IT.PC.PCSPEC" KeySequence="4" Mandatory="Yes" OrderNumber="12"/>
        <ItemRef ItemOID="IT.PC.PCMETHOD" Mandatory="No" OrderNumber="13"/>
        <ItemRef ItemOID="IT.PC.PCBLFL" Mandatory="No" OrderNumber="14"/>
        <ItemRef ItemOID="IT.PC.PCLLOQ" Mandatory="No" OrderNumber="15"/>
        <ItemRef ItemOID="IT.PC.VISITDY" Mandatory="No" OrderNumber="16"/>
        <ItemRef ItemOID="IT.PC.PCDTC" KeySequence="5" Mandatory="No" OrderNumber="17"/>
        <ItemRef ItemOID="IT.PC.PCDY" Mandatory="No" OrderNumber="18"/>
        <ItemRef ItemOID="IT.PC.PCTPT" Mandatory="No" OrderNumber="19"/>
        <ItemRef ItemOID="IT.PC.PCTPTNUM" Mandatory="No" OrderNumber="20"/>
        <ItemRef ItemOID="IT.PC.PCELTM" Mandatory="No" OrderNumber="21"/>
        <ItemRef ItemOID="IT.PC.PCTPTREF" Mandatory="No" OrderNumber="22"/>
        <ItemRef ItemOID="IT.PC.PCRFTDTC" Mandatory="No" OrderNumber="23"/>
        <def:leaf ID="LF.PC" xlink:href="pc.xpt">
          <def:title>pc.xpt</def:title>
        </def:leaf>
      </ItemGroupDef>
      <ItemGroupDef Domain="PM" IsReferenceData="No" Name="PM" OID="IG.PM" Purpose="Tabulation" Repeating="Yes" SASDatasetName="PM" def:ArchiveLocationID="LF.PM" def:Class="FINDINGS" def:Structure="One record per test per palpable mass per observation time per subject">
        <Description>
          <TranslatedText xml:lang="en">Palpable Masses</TranslatedText>
        </Description>
        <ItemRef ItemOID="IT.STUDYID" KeySequence="1" Mandatory="Yes" OrderNumber="1"/>
        <ItemRef ItemOID="IT.PM.DOMAIN" Mandatory="Yes" OrderNumber="2"/>
        <ItemRef ItemOID="IT.PM.USUBJID" KeySequence="2" Mandatory="Yes" OrderNumber="3"/>
        <ItemRef ItemOID="IT.PM.PMSEQ" Mandatory="Yes" MethodOID="MT.--.--SEQ" OrderNumber="4"/>
        <ItemRef ItemOID="IT.PM.PMSPID" KeySequence="4" Mandatory="No" OrderNumber="5"/>
        <ItemRef ItemOID="IT.PM.PMTESTCD" KeySequence="3" Mandatory="Yes" OrderNumber="6"/>
        <ItemRef ItemOID="IT.PM.PMTEST" Mandatory="Yes" OrderNumber="7"/>
        <ItemRef ItemOID="IT.PM.PMORRES" Mandatory="No" OrderNumber="8"/>
        <ItemRef ItemOID="IT.PM.PMORRESU" Mandatory="No" OrderNumber="9"/>
        <ItemRef ItemOID="IT.PM.PMSTRESC" Mandatory="No" OrderNumber="10"/>
        <ItemRef ItemOID="IT.PM.PMSTRESN" Mandatory="No" OrderNumber="11"/>
        <ItemRef ItemOID="IT.PM.PMSTRESU" Mandatory="No" OrderNumber="12"/>
        <ItemRef ItemOID="IT.PM.PMLOC" Mandatory="No" OrderNumber="13"/>
        <ItemRef ItemOID="IT.PM.VISITDY" Mandatory="No" OrderNumber="14"/>
        <ItemRef ItemOID="IT.PM.PMDTC" KeySequence="5" Mandatory="No" OrderNumber="15"/>
        <ItemRef ItemOID="IT.PM.PMDY" Mandatory="No" OrderNumber="16"/>
        <def:leaf ID="LF.PM" xlink:href="pm.xpt">
          <def:title>pm.xpt</def:title>
        </def:leaf>
      </ItemGroupDef>
      <ItemGroupDef Domain="PP" IsReferenceData="No" Name="PP" OID="IG.PP" Purpose="Tabulation" Repeating="Yes" SASDatasetName="PP" def:ArchiveLocationID="LF.PP" def:Class="FINDINGS" def:Structure="One record per test per timeconcentration profile per specimen per subject or pool">
        <Description>
          <TranslatedText xml:lang="en">Pharmacokinetics Parameters</TranslatedText>
        </Description>
        <ItemRef ItemOID="IT.STUDYID" KeySequence="1" Mandatory="Yes" OrderNumber="1"/>
        <ItemRef ItemOID="IT.PP.DOMAIN" Mandatory="Yes" OrderNumber="2"/>
        <ItemRef ItemOID="IT.PP.USUBJID" KeySequence="2" Mandatory="No" OrderNumber="3"/>
        <ItemRef ItemOID="IT.PP.PPSEQ" Mandatory="Yes" MethodOID="MT.--.--SEQ" OrderNumber="4"/>
        <ItemRef ItemOID="IT.PP.PPTESTCD" KeySequence="3" Mandatory="Yes" OrderNumber="5"/>
        <ItemRef ItemOID="IT.PP.PPTEST" Mandatory="Yes" OrderNumber="6"/>
        <ItemRef ItemOID="IT.PP.PPCAT" KeySequence="4" Mandatory="No" OrderNumber="7"/>
        <ItemRef ItemOID="IT.PP.PPORRES" Mandatory="No" OrderNumber="8"/>
        <ItemRef ItemOID="IT.PP.PPORRESU" Mandatory="No" OrderNumber="9"/>
        <ItemRef ItemOID="IT.PP.PPSTRESC" Mandatory="No" OrderNumber="10"/>
        <ItemRef ItemOID="IT.PP.PPSTRESN" Mandatory="No" OrderNumber="11"/>
        <ItemRef ItemOID="IT.PP.PPSTRESU" Mandatory="No" OrderNumber="12"/>
        <ItemRef ItemOID="IT.PP.PPSTAT" Mandatory="No" OrderNumber="13"/>
        <ItemRef ItemOID="IT.PP.PPREASND" Mandatory="No" OrderNumber="14"/>
        <ItemRef ItemOID="IT.PP.PPSPEC" KeySequence="5" Mandatory="No" OrderNumber="15"/>
        <ItemRef ItemOID="IT.PP.VISITDY" Mandatory="No" OrderNumber="16"/>
        <ItemRef ItemOID="IT.PP.PPRFTDTC" KeySequence="6" Mandatory="No" OrderNumber="17"/>
        <def:leaf ID="LF.PP" xlink:href="pp.xpt">
          <def:title>pp.xpt</def:title>
        </def:leaf>
      </ItemGroupDef>
      <ItemGroupDef Domain="SC" IsReferenceData="No" Name="SC" OID="IG.SC" Purpose="Tabulation" Repeating="Yes" SASDatasetName="SC" def:ArchiveLocationID="LF.SC" def:Class="FINDINGS" def:Structure="One record per characteristic per subject">
        <Description>
          <TranslatedText xml:lang="en">Subject Characteristics</TranslatedText>
        </Description>
        <ItemRef ItemOID="IT.STUDYID" KeySequence="1" Mandatory="Yes" OrderNumber="1"/>
        <ItemRef ItemOID="IT.SC.DOMAIN" Mandatory="Yes" OrderNumber="2"/>
        <ItemRef ItemOID="IT.SC.USUBJID" KeySequence="2" Mandatory="Yes" OrderNumber="3"/>
        <ItemRef ItemOID="IT.SC.SCSEQ" Mandatory="Yes" MethodOID="MT.--.--SEQ" OrderNumber="4"/>
        <ItemRef ItemOID="IT.SC.SCTESTCD" KeySequence="3" Mandatory="Yes" OrderNumber="5"/>
        <ItemRef ItemOID="IT.SC.SCTEST" Mandatory="Yes" OrderNumber="6"/>
        <ItemRef ItemOID="IT.SC.SCORRES" Mandatory="No" OrderNumber="7"/>
        <ItemRef ItemOID="IT.SC.SCSTRESC" Mandatory="No" OrderNumber="8"/>
        <ItemRef ItemOID="IT.SC.SCDY" Mandatory="No" OrderNumber="9"/>
        <def:leaf ID="LF.SC" xlink:href="sc.xpt">
          <def:title>sc.xpt</def:title>
        </def:leaf>
      </ItemGroupDef>
      <ItemGroupDef Domain="TF" IsReferenceData="No" Name="TF" OID="IG.TF" Purpose="Tabulation" Repeating="Yes" SASDatasetName="TF" def:ArchiveLocationID="LF.TF" def:Class="FINDINGS" def:Structure="One record per tumor per specimen per subject">
        <Description>
          <TranslatedText xml:lang="en">Tumor Findings</TranslatedText>
        </Description>
        <ItemRef ItemOID="IT.STUDYID" KeySequence="1" Mandatory="Yes" OrderNumber="1"/>
        <ItemRef ItemOID="IT.TF.DOMAIN" Mandatory="Yes" OrderNumber="2"/>
        <ItemRef ItemOID="IT.TF.USUBJID" KeySequence="2" Mandatory="Yes" OrderNumber="3"/>
        <ItemRef ItemOID="IT.TF.TFSEQ" Mandatory="Yes" MethodOID="MT.--.--SEQ" OrderNumber="4"/>
        <ItemRef ItemOID="IT.TF.TFSPID" Mandatory="No" OrderNumber="5"/>
        <ItemRef ItemOID="IT.TF.TFTESTCD" KeySequence="3" Mandatory="Yes" OrderNumber="6"/>
        <ItemRef ItemOID="IT.TF.TFTEST" Mandatory="Yes" OrderNumber="7"/>
        <ItemRef ItemOID="IT.TF.TFORRES" KeySequence="4" Mandatory="No" OrderNumber="8"/>
        <ItemRef ItemOID="IT.TF.TFSTRESC" Mandatory="No" OrderNumber="9"/>
        <ItemRef ItemOID="IT.TF.TFRESCAT" Mandatory="Yes" OrderNumber="10"/>
        <ItemRef ItemOID="IT.TF.TFSPEC" KeySequence="5" Mandatory="Yes" OrderNumber="11"/>
        <ItemRef ItemOID="IT.TF.TFDTHREL" Mandatory="Yes" OrderNumber="12"/>
        <ItemRef ItemOID="IT.TF.TFDY" Mandatory="No" OrderNumber="13"/>
        <ItemRef ItemOID="IT.TF.TFDETECT" Mandatory="Yes" MethodOID="MT.TF.TFDETECT" OrderNumber="14"/>
        <def:leaf ID="LF.TF" xlink:href="tf.xpt">
          <def:title>tf.xpt</def:title>
        </def:leaf>
      </ItemGroupDef>
      <ItemGroupDef Domain="VS" IsReferenceData="No" Name="VS" OID="IG.VS" Purpose="Tabulation" Repeating="Yes" SASDatasetName="VS" def:ArchiveLocationID="LF.VS" def:Class="FINDINGS" def:Structure="One record per measurement per observation time per subject">
        <Description>
          <TranslatedText xml:lang="en">Vital Signs</TranslatedText>
        </Description>
        <ItemRef ItemOID="IT.STUDYID" KeySequence="1" Mandatory="Yes" OrderNumber="1"/>
        <ItemRef ItemOID="IT.VS.DOMAIN" Mandatory="Yes" OrderNumber="2"/>
        <ItemRef ItemOID="IT.VS.USUBJID" KeySequence="2" Mandatory="Yes" OrderNumber="3"/>
        <ItemRef ItemOID="IT.VS.VSSEQ" Mandatory="Yes" MethodOID="MT.--.--SEQ" OrderNumber="4"/>
        <ItemRef ItemOID="IT.VS.VSTESTCD" KeySequence="3" Mandatory="Yes" OrderNumber="5"/>
        <ItemRef ItemOID="IT.VS.VSTEST" Mandatory="Yes" OrderNumber="6"/>
        <ItemRef ItemOID="IT.VS.VSORRES" Mandatory="No" OrderNumber="7"/>
        <ItemRef ItemOID="IT.VS.VSORRESU" Mandatory="No" OrderNumber="8"/>
        <ItemRef ItemOID="IT.VS.VSSTRESC" Mandatory="No" OrderNumber="9"/>
        <ItemRef ItemOID="IT.VS.VSSTRESN" Mandatory="No" OrderNumber="10"/>
        <ItemRef ItemOID="IT.VS.VSSTRESU" Mandatory="No" OrderNumber="11"/>
        <ItemRef ItemOID="IT.VS.VSBLFL" Mandatory="No" OrderNumber="12"/>
        <ItemRef ItemOID="IT.VS.VISITDY" Mandatory="No" OrderNumber="13"/>
        <ItemRef ItemOID="IT.VS.VSDTC" KeySequence="4" Mandatory="No" OrderNumber="14"/>
        <ItemRef ItemOID="IT.VS.VSDY" Mandatory="No" OrderNumber="15"/>
        <def:leaf ID="LF.VS" xlink:href="vs.xpt">
          <def:title>vs.xpt</def:title>
        </def:leaf>
      </ItemGroupDef>
      <ItemGroupDef Domain="RELREC" IsReferenceData="No" Name="RELREC" OID="IG.RELREC" Purpose="Tabulation" Repeating="Yes" SASDatasetName="RELREC" def:ArchiveLocationID="LF.RELREC" def:Class="RELATIONSHIP" def:Structure="One record per related record, related group of records (e.g., --GRPID), or related dataset">
        <Description>
          <TranslatedText xml:lang="en">Related Records</TranslatedText>
        </Description>
        <ItemRef ItemOID="IT.STUDYID" KeySequence="1" Mandatory="Yes" OrderNumber="1"/>
        <ItemRef ItemOID="IT.RELREC.RDOMAIN" KeySequence="2" Mandatory="Yes" OrderNumber="2"/>
        <ItemRef ItemOID="IT.RELREC.USUBJID" KeySequence="3" Mandatory="No" OrderNumber="3"/>
        <ItemRef ItemOID="IT.RELREC.IDVAR" KeySequence="4" Mandatory="No" OrderNumber="4"/>
        <ItemRef ItemOID="IT.RELREC.IDVARVAL" KeySequence="5" Mandatory="No" OrderNumber="5"/>
        <ItemRef ItemOID="IT.RELREC.RELTYPE" Mandatory="No" OrderNumber="6"/>
        <ItemRef ItemOID="IT.RELREC.RELID" KeySequence="6" Mandatory="Yes" OrderNumber="7"/>
        <def:leaf ID="LF.RELREC" xlink:href="relrec.xpt">
          <def:title>relrec.xpt</def:title>
        </def:leaf>
      </ItemGroupDef>
      <ItemGroupDef Domain="SUPPMA" IsReferenceData="No" Name="SUPPMA" OID="IG.SUPPMA" Purpose="Tabulation" Repeating="Yes" SASDatasetName="SUPPMA" def:ArchiveLocationID="LF.SUPPMA" def:Class="RELATIONSHIP" def:Structure="One record per IDVAR, IDVARVAL, and QNAM value per subject per related domain">
        <Description>
          <TranslatedText xml:lang="en">Supplemental Qualifiers for MA</TranslatedText>
        </Description>
        <ItemRef ItemOID="IT.STUDYID" KeySequence="1" Mandatory="Yes" OrderNumber="1"/>
        <ItemRef ItemOID="IT.SUPPMA.RDOMAIN" KeySequence="2" Mandatory="Yes" OrderNumber="2"/>
        <ItemRef ItemOID="IT.SUPPMA.USUBJID" KeySequence="3" Mandatory="No" OrderNumber="3"/>
        <ItemRef ItemOID="IT.SUPPMA.IDVAR" KeySequence="4" Mandatory="No" OrderNumber="4"/>
        <ItemRef ItemOID="IT.SUPPMA.IDVARVAL" KeySequence="5" Mandatory="No" OrderNumber="5"/>
        <ItemRef ItemOID="IT.SUPPMA.QNAM" KeySequence="6" Mandatory="Yes" OrderNumber="6"/>
        <ItemRef ItemOID="IT.SUPPMA.QLABEL" Mandatory="Yes" OrderNumber="7"/>
        <ItemRef ItemOID="IT.SUPPMA.QVAL" Mandatory="Yes" OrderNumber="8"/>
        <ItemRef ItemOID="IT.SUPPMA.QORIG" Mandatory="No" OrderNumber="9"/>
        <ItemRef ItemOID="IT.SUPPMA.QEVAL" Mandatory="No" OrderNumber="10"/>
        <def:leaf ID="LF.SUPPMA" xlink:href="suppma.xpt">
          <def:title>suppma.xpt</def:title>
        </def:leaf>
      </ItemGroupDef>
      <ItemGroupDef Domain="SUPPMI" IsReferenceData="No" Name="SUPPMI" OID="IG.SUPPMI" Purpose="Tabulation" Repeating="Yes" SASDatasetName="SUPPMI" def:ArchiveLocationID="LF.SUPPMI" def:Class="RELATIONSHIP" def:Structure="One record per IDVAR, IDVARVAL, and QNAM value per subject per related domain">
        <Description>
          <TranslatedText xml:lang="en">Supplemental Qualifiers for MI</TranslatedText>
        </Description>
        <ItemRef ItemOID="IT.STUDYID" KeySequence="1" Mandatory="Yes" OrderNumber="1"/>
        <ItemRef ItemOID="IT.SUPPMI.RDOMAIN" KeySequence="2" Mandatory="Yes" OrderNumber="2"/>
        <ItemRef ItemOID="IT.SUPPMI.USUBJID" KeySequence="3" Mandatory="No" OrderNumber="3"/>
        <ItemRef ItemOID="IT.SUPPMI.IDVAR" KeySequence="4" Mandatory="No" OrderNumber="4"/>
        <ItemRef ItemOID="IT.SUPPMI.IDVARVAL" KeySequence="5" Mandatory="No" OrderNumber="5"/>
        <ItemRef ItemOID="IT.SUPPMI.QNAM" KeySequence="6" Mandatory="Yes" OrderNumber="6"/>
        <ItemRef ItemOID="IT.SUPPMI.QLABEL" Mandatory="Yes" OrderNumber="7"/>
        <ItemRef ItemOID="IT.SUPPMI.QVAL" Mandatory="Yes" OrderNumber="8"/>
        <ItemRef ItemOID="IT.SUPPMI.QORIG" Mandatory="No" OrderNumber="9"/>
        <ItemRef ItemOID="IT.SUPPMI.QEVAL" Mandatory="No" OrderNumber="10"/>
        <def:leaf ID="LF.SUPPMI" xlink:href="suppmi.xpt">
          <def:title>suppmi.xpt</def:title>
        </def:leaf>
      </ItemGroupDef>
      <ItemDef DataType="text" Length="8" Name="STUDYID" OID="IT.STUDYID" SASFieldName="STUDYID">
        <Description>
          <TranslatedText xml:lang="en">Study Identifier</TranslatedText>
        </Description>
        <def:Origin Type="Other"/>
      </ItemDef>
      <ItemDef DataType="text" Length="2" Name="DOMAIN" OID="IT.TA.DOMAIN" SASFieldName="DOMAIN">
        <Description>
          <TranslatedText xml:lang="en">Domain Abbreviation</TranslatedText>
        </Description>
        <CodeListRef CodeListOID="CL.TA.DOMAIN.SDOMAIN.17512"/>
        <def:Origin Type="Other"/>
      </ItemDef>
      <ItemDef DataType="text" Length="2" Name="ARMCD" OID="IT.TA.ARMCD" SASFieldName="ARMCD">
        <Description>
          <TranslatedText xml:lang="en">Planned Arm Code</TranslatedText>
        </Description>
        <def:Origin Type="Other"/>
      </ItemDef>
      <ItemDef DataType="text" Length="30" Name="ARM" OID="IT.TA.ARM" SASFieldName="ARM">
        <Description>
          <TranslatedText xml:lang="en">Description of Planned Arm</TranslatedText>
        </Description>
        <def:Origin Type="Other"/>
      </ItemDef>
      <ItemDef DataType="integer" Length="1" Name="TAETORD" OID="IT.TA.TAETORD" SASFieldName="TAETORD">
        <Description>
          <TranslatedText xml:lang="en">Order of Element within Arm</TranslatedText>
        </Description>
        <def:Origin Type="Other"/>
      </ItemDef>
      <ItemDef DataType="text" Length="5" Name="ETCD" OID="IT.TA.ETCD" SASFieldName="ETCD">
        <Description>
          <TranslatedText xml:lang="en">Element Code</TranslatedText>
        </Description>
        <def:Origin Type="Other"/>
      </ItemDef>
      <ItemDef DataType="text" Length="28" Name="ELEMENT" OID="IT.TA.ELEMENT" SASFieldName="ELEMENT">
        <Description>
          <TranslatedText xml:lang="en">Description of Element</TranslatedText>
        </Description>
        <def:Origin Type="Other"/>
      </ItemDef>
      <ItemDef DataType="text" Length="21" Name="TABRANCH" OID="IT.TA.TABRANCH" SASFieldName="TABRANCH">
        <Description>
          <TranslatedText xml:lang="en">Branch</TranslatedText>
        </Description>
        <def:Origin Type="Other"/>
      </ItemDef>
      <ItemDef DataType="text" Length="9" Name="EPOCH" OID="IT.TA.EPOCH" SASFieldName="EPOCH">
        <Description>
          <TranslatedText xml:lang="en">Trial Epoch</TranslatedText>
        </Description>
        <def:Origin Type="Other"/>
      </ItemDef>
      <ItemDef DataType="text" Length="2" Name="DOMAIN" OID="IT.TE.DOMAIN" SASFieldName="DOMAIN">
        <Description>
          <TranslatedText xml:lang="en">Domain Abbreviation</TranslatedText>
        </Description>
        <CodeListRef CodeListOID="CL.TE.DOMAIN.SDOMAIN.17513"/>
        <def:Origin Type="Other"/>
      </ItemDef>
      <ItemDef DataType="text" Length="5" Name="ETCD" OID="IT.TE.ETCD" SASFieldName="ETCD">
        <Description>
          <TranslatedText xml:lang="en">Element Code</TranslatedText>
        </Description>
        <def:Origin Type="Other"/>
      </ItemDef>
      <ItemDef DataType="text" Length="28" Name="ELEMENT" OID="IT.TE.ELEMENT" SASFieldName="ELEMENT">
        <Description>
          <TranslatedText xml:lang="en">Description of Element</TranslatedText>
        </Description>
        <def:Origin Type="Other"/>
      </ItemDef>
      <ItemDef DataType="text" Length="41" Name="TESTRL" OID="IT.TE.TESTRL" SASFieldName="TESTRL">
        <Description>
          <TranslatedText xml:lang="en">Rule for Start of Element</TranslatedText>
        </Description>
        <def:Origin Type="Other"/>
      </ItemDef>
      <ItemDef DataType="text" Length="31" Name="TEENRL" OID="IT.TE.TEENRL" SASFieldName="TEENRL">
        <Description>
          <TranslatedText xml:lang="en">Rule for End of Element</TranslatedText>
        </Description>
        <def:Origin Type="Other"/>
      </ItemDef>
      <ItemDef DataType="text" Length="4" Name="TEDUR" OID="IT.TE.TEDUR" SASFieldName="TEDUR">
        <Description>
          <TranslatedText xml:lang="en">Planned Duration of Element</TranslatedText>
        </Description>
        <def:Origin Type="Other"/>
      </ItemDef>
      <ItemDef DataType="text" Length="2" Name="DOMAIN" OID="IT.TS.DOMAIN" SASFieldName="DOMAIN">
        <Description>
          <TranslatedText xml:lang="en">Domain Abbreviation</TranslatedText>
        </Description>
        <CodeListRef CodeListOID="CL.TS.DOMAIN.SDOMAIN.17517"/>
        <def:Origin Type="Other"/>
      </ItemDef>
      <ItemDef DataType="integer" Length="1" Name="TSSEQ" OID="IT.TS.TSSEQ" SASFieldName="TSSEQ">
        <Description>
          <TranslatedText xml:lang="en">Sequence Number</TranslatedText>
        </Description>
        <def:Origin Type="Other"/>
      </ItemDef>
      <ItemDef DataType="text" Length="1" Name="TSGRPID" OID="IT.TS.TSGRPID" SASFieldName="TSGRPID">
        <Description>
          <TranslatedText xml:lang="en">Group Identifier</TranslatedText>
        </Description>
        <def:Origin Type="Other"/>
      </ItemDef>
      <ItemDef DataType="text" Length="8" Name="TSPARMCD" OID="IT.TS.TSPARMCD" SASFieldName="TSPARMCD">
        <Description>
          <TranslatedText xml:lang="en">Trial Summary Parameter Short Name</TranslatedText>
        </Description>
        <CodeListRef CodeListOID="CL.TS.TSPARMCD.STSPRMCD.21903"/>
        <def:Origin Type="Other"/>
      </ItemDef>
      <ItemDef DataType="text" Length="37" Name="TSPARM" OID="IT.TS.TSPARM" SASFieldName="TSPARM">
        <Description>
          <TranslatedText xml:lang="en">Trial Summary Parameter</TranslatedText>
        </Description>
        <CodeListRef CodeListOID="CL.TS.TSPARM.STSPRM.21903"/>
        <def:Origin Type="Other"/>
      </ItemDef>
      <ItemDef DataType="text" Length="56" Name="TSVAL" OID="IT.TS.TSVAL" SASFieldName="TSVAL">
        <Description>
          <TranslatedText xml:lang="en">Parameter Value</TranslatedText>
        </Description>
        <def:Origin Type="Other"/>
        <def:ValueListRef ValueListOID="VL.TS.TSVAL"/>
      </ItemDef>
      <ItemDef DataType="text" Length="2" Name="DOMAIN" OID="IT.TX.DOMAIN" SASFieldName="DOMAIN">
        <Description>
          <TranslatedText xml:lang="en">Domain Abbreviation</TranslatedText>
        </Description>
        <CodeListRef CodeListOID="CL.TX.DOMAIN.SDOMAIN.17519"/>
        <def:Origin Type="Other"/>
      </ItemDef>
      <ItemDef DataType="text" Length="3" Name="SETCD" OID="IT.TX.SETCD" SASFieldName="SETCD">
        <Description>
          <TranslatedText xml:lang="en">Set Code</TranslatedText>
        </Description>
        <def:Origin Type="Other"/>
      </ItemDef>
      <ItemDef DataType="text" Length="37" Name="SET" OID="IT.TX.SET" SASFieldName="SET">
        <Description>
          <TranslatedText xml:lang="en">Set Description</TranslatedText>
        </Description>
        <def:Origin Type="Other"/>
      </ItemDef>
      <ItemDef DataType="integer" Length="3" Name="TXSEQ" OID="IT.TX.TXSEQ" SASFieldName="TXSEQ">
        <Description>
          <TranslatedText xml:lang="en">Sequence Number</TranslatedText>
        </Description>
        <def:Origin Type="Other"/>
      </ItemDef>
      <ItemDef DataType="text" Length="8" Name="TXPARMCD" OID="IT.TX.TXPARMCD" SASFieldName="TXPARMCD">
        <Description>
          <TranslatedText xml:lang="en">Trial Set Parameter Short Name</TranslatedText>
        </Description>
        <CodeListRef CodeListOID="CL.TX.TXPARMCD.STSPRMCD.21904"/>
        <def:Origin Type="Other"/>
      </ItemDef>
      <ItemDef DataType="text" Length="33" Name="TXPARM" OID="IT.TX.TXPARM" SASFieldName="TXPARM">
        <Description>
          <TranslatedText xml:lang="en">Trial Set Parameter</TranslatedText>
        </Description>
        <CodeListRef CodeListOID="CL.TX.TXPARM.STSPRM.21904"/>
        <def:Origin Type="Other"/>
      </ItemDef>
      <ItemDef DataType="text" Length="32" Name="TXVAL" OID="IT.TX.TXVAL" SASFieldName="TXVAL">
        <Description>
          <TranslatedText xml:lang="en">Trial Set Parameter Value</TranslatedText>
        </Description>
        <def:Origin Type="Other"/>
      </ItemDef>
      <ItemDef DataType="text" Length="2" Name="DOMAIN" OID="IT.CO.DOMAIN" SASFieldName="DOMAIN">
        <Description>
          <TranslatedText xml:lang="en">Domain Abbreviation</TranslatedText>
        </Description>
        <CodeListRef CodeListOID="CL.CO.DOMAIN.SDOMAIN.17465"/>
        <def:Origin Type="Other"/>
      </ItemDef>
      <ItemDef DataType="text" Length="2" Name="RDOMAIN" OID="IT.CO.RDOMAIN" SASFieldName="RDOMAIN">
        <Description>
          <TranslatedText xml:lang="en">Related Domain Abbreviation</TranslatedText>
        </Description>
        <def:Origin Type="Other"/>
      </ItemDef>
      <ItemDef DataType="text" Length="13" Name="USUBJID" OID="IT.CO.USUBJID" SASFieldName="USUBJID">
        <Description>
          <TranslatedText xml:lang="en">Unique Subject Identifier</TranslatedText>
        </Description>
        <def:Origin Type="Other"/>
      </ItemDef>
      <ItemDef DataType="integer" Length="3" Name="COSEQ" OID="IT.CO.COSEQ" SASFieldName="COSEQ">
        <Description>
          <TranslatedText xml:lang="en">Sequence Number</TranslatedText>
        </Description>
        <def:Origin Type="Other"/>
      </ItemDef>
      <ItemDef DataType="text" Length="5" Name="IDVAR" OID="IT.CO.IDVAR" SASFieldName="IDVAR">
        <Description>
          <TranslatedText xml:lang="en">Identifying Variable</TranslatedText>
        </Description>
        <def:Origin Type="Other"/>
      </ItemDef>
      <ItemDef DataType="text" Length="2" Name="IDVARVAL" OID="IT.CO.IDVARVAL" SASFieldName="IDVARVAL">
        <Description>
          <TranslatedText xml:lang="en">Identifying Variable Value</TranslatedText>
        </Description>
        <def:Origin Type="Other"/>
      </ItemDef>
      <ItemDef DataType="text" Length="33" Name="COVAL" OID="IT.CO.COVAL" SASFieldName="COVAL">
        <Description>
          <TranslatedText xml:lang="en">Comment</TranslatedText>
        </Description>
        <def:Origin Type="Collected"/>
      </ItemDef>
      <ItemDef DataType="datetime" Name="CODTC" OID="IT.CO.CODTC" SASFieldName="CODTC">
        <Description>
          <TranslatedText xml:lang="en">Date/Time of Comment</TranslatedText>
        </Description>
        <def:Origin Type="Collected"/>
      </ItemDef>
      <ItemDef DataType="text" Length="2" Name="DOMAIN" OID="IT.DM.DOMAIN" SASFieldName="DOMAIN">
        <Description>
          <TranslatedText xml:lang="en">Domain Abbreviation</TranslatedText>
        </Description>
        <CodeListRef CodeListOID="CL.DM.DOMAIN.SDOMAIN.17467"/>
        <def:Origin Type="Other"/>
      </ItemDef>
      <ItemDef DataType="text" Length="13" Name="USUBJID" OID="IT.DM.USUBJID" SASFieldName="USUBJID">
        <Description>
          <TranslatedText xml:lang="en">Unique Subject Identifier</TranslatedText>
        </Description>
        <def:Origin Type="Other"/>
      </ItemDef>
      <ItemDef DataType="text" Length="4" Name="SUBJID" OID="IT.DM.SUBJID" SASFieldName="SUBJID">
        <Description>
          <TranslatedText xml:lang="en">Subject Identifier for the Study</TranslatedText>
        </Description>
        <def:Origin Type="Other"/>
      </ItemDef>
      <ItemDef DataType="datetime" Name="RFSTDTC" OID="IT.DM.RFSTDTC" SASFieldName="RFSTDTC" def:CommentOID="COM.DM.RFSTDTC">
        <Description>
          <TranslatedText xml:lang="en">Subject Reference Start Date/Time</TranslatedText>
        </Description>
        <def:Origin Type="Collected"/>
      </ItemDef>
      <ItemDef DataType="datetime" Name="RFENDTC" OID="IT.DM.RFENDTC" SASFieldName="RFENDTC" def:CommentOID="COM.DM.RFENDTC">
        <Description>
          <TranslatedText xml:lang="en">Subject Reference End Date/Time</TranslatedText>
        </Description>
        <def:Origin Type="Collected"/>
      </ItemDef>
      <ItemDef DataType="text" Length="3" Name="AGETXT" OID="IT.DM.AGETXT" SASFieldName="AGETXT">
        <Description>
          <TranslatedText xml:lang="en">Age Range</TranslatedText>
        </Description>
        <def:Origin Type="Other"/>
      </ItemDef>
      <ItemDef DataType="text" Length="5" Name="AGEU" OID="IT.DM.AGEU" SASFieldName="AGEU">
        <Description>
          <TranslatedText xml:lang="en">Age Unit</TranslatedText>
        </Description>
        <CodeListRef CodeListOID="CL.AGEU.17404"/>
        <def:Origin Type="Other"/>
      </ItemDef>
      <ItemDef DataType="text" Length="1" Name="SEX" OID="IT.DM.SEX" SASFieldName="SEX">
        <Description>
          <TranslatedText xml:lang="en">Sex</TranslatedText>
        </Description>
        <CodeListRef CodeListOID="CL.SEX.17442"/>
        <def:Origin Type="Other"/>
      </ItemDef>
      <ItemDef DataType="text" Length="2" Name="ARMCD" OID="IT.DM.ARMCD" SASFieldName="ARMCD">
        <Description>
          <TranslatedText xml:lang="en">Planned Arm Code</TranslatedText>
        </Description>
        <def:Origin Type="Other"/>
      </ItemDef>
      <ItemDef DataType="text" Length="30" Name="ARM" OID="IT.DM.ARM" SASFieldName="ARM">
        <Description>
          <TranslatedText xml:lang="en">Description of Planned Arm</TranslatedText>
        </Description>
        <def:Origin Type="Other"/>
      </ItemDef>
      <ItemDef DataType="text" Length="3" Name="SETCD" OID="IT.DM.SETCD" SASFieldName="SETCD">
        <Description>
          <TranslatedText xml:lang="en">Set Code</TranslatedText>
        </Description>
        <def:Origin Type="Other"/>
      </ItemDef>
      <ItemDef DataType="text" Length="2" Name="DOMAIN" OID="IT.SE.DOMAIN" SASFieldName="DOMAIN">
        <Description>
          <TranslatedText xml:lang="en">Domain Abbreviation</TranslatedText>
        </Description>
        <CodeListRef CodeListOID="CL.SE.DOMAIN.SDOMAIN.17511"/>
        <def:Origin Type="Other"/>
      </ItemDef>
      <ItemDef DataType="text" Length="13" Name="USUBJID" OID="IT.SE.USUBJID" SASFieldName="USUBJID">
        <Description>
          <TranslatedText xml:lang="en">Unique Subject Identifier</TranslatedText>
        </Description>
        <def:Origin Type="Other"/>
      </ItemDef>
      <ItemDef DataType="integer" Length="1" Name="SESEQ" OID="IT.SE.SESEQ" SASFieldName="SESEQ">
        <Description>
          <TranslatedText xml:lang="en">Sequence Number</TranslatedText>
        </Description>
        <def:Origin Type="Other"/>
      </ItemDef>
      <ItemDef DataType="text" Length="5" Name="ETCD" OID="IT.SE.ETCD" SASFieldName="ETCD">
        <Description>
          <TranslatedText xml:lang="en">Element Code</TranslatedText>
        </Description>
        <def:Origin Type="Other"/>
      </ItemDef>
      <ItemDef DataType="text" Length="28" Name="ELEMENT" OID="IT.SE.ELEMENT" SASFieldName="ELEMENT">
        <Description>
          <TranslatedText xml:lang="en">Description of Element</TranslatedText>
        </Description>
        <def:Origin Type="Other"/>
      </ItemDef>
      <ItemDef DataType="datetime" Name="SESTDTC" OID="IT.SE.SESTDTC" SASFieldName="SESTDTC">
        <Description>
          <TranslatedText xml:lang="en">Start Date/Time of Element</TranslatedText>
        </Description>
        <def:Origin Type="Collected"/>
      </ItemDef>
      <ItemDef DataType="datetime" Name="SEENDTC" OID="IT.SE.SEENDTC" SASFieldName="SEENDTC">
        <Description>
          <TranslatedText xml:lang="en">End Date/Time of Element</TranslatedText>
        </Description>
        <def:Origin Type="Collected"/>
      </ItemDef>
      <ItemDef DataType="text" Length="2" Name="DOMAIN" OID="IT.EX.DOMAIN" SASFieldName="DOMAIN">
        <Description>
          <TranslatedText xml:lang="en">Domain Abbreviation</TranslatedText>
        </Description>
        <CodeListRef CodeListOID="CL.EX.DOMAIN.SDOMAIN.17474"/>
        <def:Origin Type="Other"/>
      </ItemDef>
      <ItemDef DataType="text" Length="13" Name="USUBJID" OID="IT.EX.USUBJID" SASFieldName="USUBJID">
        <Description>
          <TranslatedText xml:lang="en">Unique Subject Identifier</TranslatedText>
        </Description>
        <def:Origin Type="Other"/>
      </ItemDef>
      <ItemDef DataType="integer" Length="1" Name="EXSEQ" OID="IT.EX.EXSEQ" SASFieldName="EXSEQ">
        <Description>
          <TranslatedText xml:lang="en">Sequence Number</TranslatedText>
        </Description>
        <def:Origin Type="Derived"/>
      </ItemDef>
      <ItemDef DataType="text" Length="6" Name="EXTRT" OID="IT.EX.EXTRT" SASFieldName="EXTRT">
        <Description>
          <TranslatedText xml:lang="en">Name of Actual Treatment</TranslatedText>
        </Description>
        <def:Origin Type="Other"/>
      </ItemDef>
      <ItemDef DataType="float" Length="3" Name="EXDOSE" OID="IT.EX.EXDOSE" SASFieldName="EXDOSE" SignificantDigits="0">
        <Description>
          <TranslatedText xml:lang="en">Dose per Administration</TranslatedText>
        </Description>
        <def:Origin Type="Collected"/>
      </ItemDef>
      <ItemDef DataType="text" Length="5" Name="EXDOSU" OID="IT.EX.EXDOSU" SASFieldName="EXDOSU">
        <Description>
          <TranslatedText xml:lang="en">Dose Units</TranslatedText>
        </Description>
        <CodeListRef CodeListOID="CL.EX.EXDOSU.UNIT.17475"/>
        <def:Origin Type="Other"/>
      </ItemDef>
      <ItemDef DataType="text" Length="8" Name="EXDOSFRM" OID="IT.EX.EXDOSFRM" SASFieldName="EXDOSFRM">
        <Description>
          <TranslatedText xml:lang="en">Dose Form</TranslatedText>
        </Description>
        <CodeListRef CodeListOID="CL.FRM.17431"/>
        <def:Origin Type="Other"/>
      </ItemDef>
      <ItemDef DataType="text" Length="3" Name="EXDOSFRQ" OID="IT.EX.EXDOSFRQ" SASFieldName="EXDOSFRQ">
        <Description>
          <TranslatedText xml:lang="en">Dosing Frequency Per Interval</TranslatedText>
        </Description>
        <CodeListRef CodeListOID="CL.FREQ.17417"/>
        <def:Origin Type="Other"/>
      </ItemDef>
      <ItemDef DataType="text" Length="11" Name="EXROUTE" OID="IT.EX.EXROUTE" SASFieldName="EXROUTE">
        <Description>
          <TranslatedText xml:lang="en">Route of Administration</TranslatedText>
        </Description>
        <CodeListRef CodeListOID="CL.ROUTE.17436"/>
        <def:Origin Type="Other"/>
      </ItemDef>
      <ItemDef DataType="text" Length="6" Name="EXLOT" OID="IT.EX.EXLOT" SASFieldName="EXLOT">
        <Description>
          <TranslatedText xml:lang="en">Lot Number</TranslatedText>
        </Description>
        <def:Origin Type="Other"/>
      </ItemDef>
      <ItemDef DataType="text" Length="6" Name="EXTRTV" OID="IT.EX.EXTRTV" SASFieldName="EXTRTV">
        <Description>
          <TranslatedText xml:lang="en">Treatment Vehicle</TranslatedText>
        </Description>
        <def:Origin Type="Other"/>
      </ItemDef>
      <ItemDef DataType="datetime" Name="EXSTDTC" OID="IT.EX.EXSTDTC" SASFieldName="EXSTDTC">
        <Description>
          <TranslatedText xml:lang="en">Start Date/Time of Treatment</TranslatedText>
        </Description>
        <def:Origin Type="Collected"/>
      </ItemDef>
      <ItemDef DataType="datetime" Name="EXENDTC" OID="IT.EX.EXENDTC" SASFieldName="EXENDTC">
        <Description>
          <TranslatedText xml:lang="en">End Date/Time of Treatment</TranslatedText>
        </Description>
        <def:Origin Type="Collected"/>
      </ItemDef>
      <ItemDef DataType="integer" Length="1" Name="EXSTDY" OID="IT.EX.EXSTDY" SASFieldName="EXSTDY">
        <Description>
          <TranslatedText xml:lang="en">Study Day of Start of Treatment</TranslatedText>
        </Description>
        <def:Origin Type="Collected"/>
      </ItemDef>
      <ItemDef DataType="integer" Length="2" Name="EXENDY" OID="IT.EX.EXENDY" SASFieldName="EXENDY">
        <Description>
          <TranslatedText xml:lang="en">Study Day of End of Treatment</TranslatedText>
        </Description>
        <def:Origin Type="Collected"/>
      </ItemDef>
      <ItemDef DataType="text" Length="2" Name="DOMAIN" OID="IT.DS.DOMAIN" SASFieldName="DOMAIN">
        <Description>
          <TranslatedText xml:lang="en">Domain Abbreviation</TranslatedText>
        </Description>
        <CodeListRef CodeListOID="CL.DS.DOMAIN.SDOMAIN.17468"/>
        <def:Origin Type="Other"/>
      </ItemDef>
      <ItemDef DataType="text" Length="13" Name="USUBJID" OID="IT.DS.USUBJID" SASFieldName="USUBJID">
        <Description>
          <TranslatedText xml:lang="en">Unique Subject Identifier</TranslatedText>
        </Description>
        <def:Origin Type="Other"/>
      </ItemDef>
      <ItemDef DataType="integer" Length="1" Name="DSSEQ" OID="IT.DS.DSSEQ" SASFieldName="DSSEQ">
        <Description>
          <TranslatedText xml:lang="en">Sequence Number</TranslatedText>
        </Description>
        <def:Origin Type="Derived"/>
      </ItemDef>
      <ItemDef DataType="text" Length="13" Name="DSTERM" OID="IT.DS.DSTERM" SASFieldName="DSTERM">
        <Description>
          <TranslatedText xml:lang="en">Reported Term for the Disposition Event</TranslatedText>
        </Description>
        <def:Origin Type="Collected"/>
      </ItemDef>
      <ItemDef DataType="text" Length="18" Name="DSDECOD" OID="IT.DS.DSDECOD" SASFieldName="DSDECOD">
        <Description>
          <TranslatedText xml:lang="en">Standardized Disposition Term</TranslatedText>
        </Description>
        <CodeListRef CodeListOID="CL.DSDECOD.17446"/>
        <def:Origin Type="Other"/>
      </ItemDef>
      <ItemDef DataType="integer" Length="3" Name="VISITDY" OID="IT.DS.VISITDY" SASFieldName="VISITDY">
        <Description>
          <TranslatedText xml:lang="en">Planned Study Day of Disposition</TranslatedText>
        </Description>
        <def:Origin Type="Collected"/>
      </ItemDef>
      <ItemDef DataType="datetime" Name="DSSTDTC" OID="IT.DS.DSSTDTC" SASFieldName="DSSTDTC">
        <Description>
          <TranslatedText xml:lang="en">Date/Time of Disposition</TranslatedText>
        </Description>
        <def:Origin Type="Collected"/>
      </ItemDef>
      <ItemDef DataType="integer" Length="3" Name="DSSTDY" OID="IT.DS.DSSTDY" SASFieldName="DSSTDY">
        <Description>
          <TranslatedText xml:lang="en">Study Day of Disposition</TranslatedText>
        </Description>
        <def:Origin Type="Collected"/>
      </ItemDef>
      <ItemDef DataType="text" Length="2" Name="DOMAIN" OID="IT.BG.DOMAIN" SASFieldName="DOMAIN">
        <Description>
          <TranslatedText xml:lang="en">Domain Abbreviation</TranslatedText>
        </Description>
        <CodeListRef CodeListOID="CL.BG.DOMAIN.SDOMAIN.17459"/>
        <def:Origin Type="Other"/>
      </ItemDef>
      <ItemDef DataType="text" Length="13" Name="USUBJID" OID="IT.BG.USUBJID" SASFieldName="USUBJID">
        <Description>
          <TranslatedText xml:lang="en">Unique Subject Identifier</TranslatedText>
        </Description>
        <def:Origin Type="Other"/>
      </ItemDef>
      <ItemDef DataType="integer" Length="1" Name="BGSEQ" OID="IT.BG.BGSEQ" SASFieldName="BGSEQ">
        <Description>
          <TranslatedText xml:lang="en">Sequence Number</TranslatedText>
        </Description>
        <def:Origin Type="Derived"/>
      </ItemDef>
      <ItemDef DataType="text" Length="6" Name="BGTESTCD" OID="IT.BG.BGTESTCD" SASFieldName="BGTESTCD">
        <Description>
          <TranslatedText xml:lang="en">Test Short Name</TranslatedText>
        </Description>
        <CodeListRef CodeListOID="CL.BGTESTCD.17406"/>
        <def:Origin Type="Other"/>
      </ItemDef>
      <ItemDef DataType="text" Length="16" Name="BGTEST" OID="IT.BG.BGTEST" SASFieldName="BGTEST">
        <Description>
          <TranslatedText xml:lang="en">Test Name</TranslatedText>
        </Description>
        <CodeListRef CodeListOID="CL.BGTEST.17406"/>
        <def:Origin Type="Other"/>
      </ItemDef>
      <ItemDef DataType="text" Length="3" Name="BGORRES" OID="IT.BG.BGORRES" SASFieldName="BGORRES">
        <Description>
          <TranslatedText xml:lang="en">Result or Findings as Collected</TranslatedText>
        </Description>
        <def:Origin Type="Collected"/>
      </ItemDef>
      <ItemDef DataType="text" Length="1" Name="BGORRESU" OID="IT.BG.BGORRESU" SASFieldName="BGORRESU">
        <Description>
          <TranslatedText xml:lang="en">Unit of the Original Result</TranslatedText>
        </Description>
        <CodeListRef CodeListOID="CL.2125.UNIT.21877"/>
        <def:Origin Type="Other"/>
      </ItemDef>
      <ItemDef DataType="text" Length="3" Name="BGSTRESC" OID="IT.BG.BGSTRESC" SASFieldName="BGSTRESC">
        <Description>
          <TranslatedText xml:lang="en">Standardized Result in Character Format</TranslatedText>
        </Description>
        <def:Origin Type="Collected"/>
      </ItemDef>
      <ItemDef DataType="float" Length="3" Name="BGSTRESN" OID="IT.BG.BGSTRESN" SASFieldName="BGSTRESN" SignificantDigits="0">
        <Description>
          <TranslatedText xml:lang="en">Standardized Result in Numeric Format</TranslatedText>
        </Description>
        <def:Origin Type="Collected"/>
      </ItemDef>
      <ItemDef DataType="text" Length="1" Name="BGSTRESU" OID="IT.BG.BGSTRESU" SASFieldName="BGSTRESU">
        <Description>
          <TranslatedText xml:lang="en">Unit of the Standardized Result</TranslatedText>
        </Description>
        <CodeListRef CodeListOID="CL.2125.UNIT.21877"/>
        <def:Origin Type="Other"/>
      </ItemDef>
      <ItemDef DataType="datetime" Name="BGDTC" OID="IT.BG.BGDTC" SASFieldName="BGDTC">
        <Description>
          <TranslatedText xml:lang="en">Date/Time Animal Weighed</TranslatedText>
        </Description>
        <def:Origin Type="Collected"/>
      </ItemDef>
      <ItemDef DataType="datetime" Name="BGENDTC" OID="IT.BG.BGENDTC" SASFieldName="BGENDTC">
        <Description>
          <TranslatedText xml:lang="en">End Date/Time Animal Weighed</TranslatedText>
        </Description>
        <def:Origin Type="Collected"/>
      </ItemDef>
      <ItemDef DataType="integer" Length="2" Name="BGDY" OID="IT.BG.BGDY" SASFieldName="BGDY">
        <Description>
          <TranslatedText xml:lang="en">Study Day Animal Weighed</TranslatedText>
        </Description>
        <def:Origin Type="Collected"/>
      </ItemDef>
      <ItemDef DataType="integer" Length="3" Name="BGENDY" OID="IT.BG.BGENDY" SASFieldName="BGENDY">
        <Description>
          <TranslatedText xml:lang="en">Study Day of End of Weight Interval</TranslatedText>
        </Description>
        <def:Origin Type="Collected"/>
      </ItemDef>
      <ItemDef DataType="text" Length="2" Name="DOMAIN" OID="IT.BW.DOMAIN" SASFieldName="DOMAIN">
        <Description>
          <TranslatedText xml:lang="en">Domain Abbreviation</TranslatedText>
        </Description>
        <CodeListRef CodeListOID="CL.BW.DOMAIN.SDOMAIN.17462"/>
        <def:Origin Type="Other"/>
      </ItemDef>
      <ItemDef DataType="text" Length="13" Name="USUBJID" OID="IT.BW.USUBJID" SASFieldName="USUBJID">
        <Description>
          <TranslatedText xml:lang="en">Unique Subject Identifier</TranslatedText>
        </Description>
        <def:Origin Type="Other"/>
      </ItemDef>
      <ItemDef DataType="integer" Length="2" Name="BWSEQ" OID="IT.BW.BWSEQ" SASFieldName="BWSEQ">
        <Description>
          <TranslatedText xml:lang="en">Sequence Number</TranslatedText>
        </Description>
        <def:Origin Type="Derived"/>
      </ItemDef>
      <ItemDef DataType="text" Length="6" Name="BWTESTCD" OID="IT.BW.BWTESTCD" SASFieldName="BWTESTCD">
        <Description>
          <TranslatedText xml:lang="en">Test Short Name</TranslatedText>
        </Description>
        <CodeListRef CodeListOID="CL.BWTESTCD.17407"/>
        <def:Origin Type="Other"/>
      </ItemDef>
      <ItemDef DataType="text" Length="20" Name="BWTEST" OID="IT.BW.BWTEST" SASFieldName="BWTEST">
        <Description>
          <TranslatedText xml:lang="en">Test Name</TranslatedText>
        </Description>
        <CodeListRef CodeListOID="CL.BWTEST.17407"/>
        <def:Origin Type="Other"/>
      </ItemDef>
      <ItemDef DataType="text" Length="5" Name="BWORRES" OID="IT.BW.BWORRES" SASFieldName="BWORRES">
        <Description>
          <TranslatedText xml:lang="en">Result or Findings as Collected</TranslatedText>
        </Description>
        <def:Origin Type="Collected"/>
      </ItemDef>
      <ItemDef DataType="text" Length="1" Name="BWORRESU" OID="IT.BW.BWORRESU" SASFieldName="BWORRESU">
        <Description>
          <TranslatedText xml:lang="en">Unit of the Original Result</TranslatedText>
        </Description>
        <CodeListRef CodeListOID="CL.2125.UNIT.21877"/>
        <def:Origin Type="Other"/>
      </ItemDef>
      <ItemDef DataType="text" Length="5" Name="BWSTRESC" OID="IT.BW.BWSTRESC" SASFieldName="BWSTRESC">
        <Description>
          <TranslatedText xml:lang="en">Standardized Result in Character Format</TranslatedText>
        </Description>
        <def:Origin Type="Collected"/>
      </ItemDef>
      <ItemDef DataType="float" Length="5" Name="BWSTRESN" OID="IT.BW.BWSTRESN" SASFieldName="BWSTRESN" SignificantDigits="1">
        <Description>
          <TranslatedText xml:lang="en">Standardized Result in Numeric Format</TranslatedText>
        </Description>
        <def:Origin Type="Collected"/>
      </ItemDef>
      <ItemDef DataType="text" Length="1" Name="BWSTRESU" OID="IT.BW.BWSTRESU" SASFieldName="BWSTRESU">
        <Description>
          <TranslatedText xml:lang="en">Unit of the Standardized Result</TranslatedText>
        </Description>
        <CodeListRef CodeListOID="CL.2125.UNIT.21877"/>
        <def:Origin Type="Other"/>
      </ItemDef>
      <ItemDef DataType="text" Length="1" Name="BWBLFL" OID="IT.BW.BWBLFL" SASFieldName="BWBLFL">
        <Description>
          <TranslatedText xml:lang="en">Baseline Flag</TranslatedText>
        </Description>
        <CodeListRef CodeListOID="CL.NY.17426"/>
        <def:Origin Type="Not Available"/>
      </ItemDef>
      <ItemDef DataType="integer" Length="3" Name="VISITDY" OID="IT.BW.VISITDY" SASFieldName="VISITDY">
        <Description>
          <TranslatedText xml:lang="en">Planned Study Day of Collection</TranslatedText>
        </Description>
        <def:Origin Type="Collected"/>
      </ItemDef>
      <ItemDef DataType="datetime" Name="BWDTC" OID="IT.BW.BWDTC" SASFieldName="BWDTC">
        <Description>
          <TranslatedText xml:lang="en">Date/Time Animal Weighed</TranslatedText>
        </Description>
        <def:Origin Type="Collected"/>
      </ItemDef>
      <ItemDef DataType="integer" Length="3" Name="BWDY" OID="IT.BW.BWDY" SASFieldName="BWDY">
        <Description>
          <TranslatedText xml:lang="en">Study Day Animal Weighed</TranslatedText>
        </Description>
        <def:Origin Type="Collected"/>
      </ItemDef>
      <ItemDef DataType="text" Length="2" Name="DOMAIN" OID="IT.CL.DOMAIN" SASFieldName="DOMAIN">
        <Description>
          <TranslatedText xml:lang="en">Domain Abbreviation</TranslatedText>
        </Description>
        <CodeListRef CodeListOID="CL.CL.DOMAIN.SDOMAIN.17464"/>
        <def:Origin Type="Other"/>
      </ItemDef>
      <ItemDef DataType="text" Length="13" Name="USUBJID" OID="IT.CL.USUBJID" SASFieldName="USUBJID">
        <Description>
          <TranslatedText xml:lang="en">Unique Subject Identifier</TranslatedText>
        </Description>
        <def:Origin Type="Other"/>
      </ItemDef>
      <ItemDef DataType="integer" Length="2" Name="CLSEQ" OID="IT.CL.CLSEQ" SASFieldName="CLSEQ">
        <Description>
          <TranslatedText xml:lang="en">Sequence Number</TranslatedText>
        </Description>
        <def:Origin Type="Derived"/>
      </ItemDef>
      <ItemDef DataType="text" Length="2" Name="CLTESTCD" OID="IT.CL.CLTESTCD" SASFieldName="CLTESTCD">
        <Description>
          <TranslatedText xml:lang="en">Test Short Name</TranslatedText>
        </Description>
        <def:Origin Type="Other"/>
      </ItemDef>
      <ItemDef DataType="text" Length="13" Name="CLTEST" OID="IT.CL.CLTEST" SASFieldName="CLTEST">
        <Description>
          <TranslatedText xml:lang="en">Test Name</TranslatedText>
        </Description>
        <def:Origin Type="Other"/>
      </ItemDef>
      <ItemDef DataType="text" Length="14" Name="CLCAT" OID="IT.CL.CLCAT" SASFieldName="CLCAT">
        <Description>
          <TranslatedText xml:lang="en">Category for Clinical Observations</TranslatedText>
        </Description>
        <CodeListRef CodeListOID="CL.CLCAT.17408"/>
        <def:Origin Type="Other"/>
      </ItemDef>
      <ItemDef DataType="text" Length="37" Name="CLORRES" OID="IT.CL.CLORRES" SASFieldName="CLORRES">
        <Description>
          <TranslatedText xml:lang="en">Result or Findings as Collected</TranslatedText>
        </Description>
        <def:Origin Type="Collected"/>
      </ItemDef>
      <ItemDef DataType="text" Length="11" Name="CLSTRESC" OID="IT.CL.CLSTRESC" SASFieldName="CLSTRESC" def:CommentOID="COM.CL.CLSTRESC">
        <Description>
          <TranslatedText xml:lang="en">Standardized Result in Character Format</TranslatedText>
        </Description>
        <def:Origin Type="Collected"/>
      </ItemDef>
      <ItemDef DataType="text" Length="20" Name="CLLOC" OID="IT.CL.CLLOC" SASFieldName="CLLOC">
        <Description>
          <TranslatedText xml:lang="en">Location of a Finding</TranslatedText>
        </Description>
        <def:Origin Type="Collected"/>
      </ItemDef>
      <ItemDef DataType="integer" Length="3" Name="VISITDY" OID="IT.CL.VISITDY" SASFieldName="VISITDY">
        <Description>
          <TranslatedText xml:lang="en">Planned Study Day of Collection</TranslatedText>
        </Description>
        <def:Origin Type="Collected"/>
      </ItemDef>
      <ItemDef DataType="datetime" Name="CLDTC" OID="IT.CL.CLDTC" SASFieldName="CLDTC">
        <Description>
          <TranslatedText xml:lang="en">Start Date/Time of Observation</TranslatedText>
        </Description>
        <def:Origin Type="Collected"/>
      </ItemDef>
      <ItemDef DataType="integer" Length="3" Name="CLDY" OID="IT.CL.CLDY" SASFieldName="CLDY">
        <Description>
          <TranslatedText xml:lang="en">Study Day of Observation</TranslatedText>
        </Description>
        <def:Origin Type="Collected"/>
      </ItemDef>
      <ItemDef DataType="text" Length="2" Name="DOMAIN" OID="IT.DD.DOMAIN" SASFieldName="DOMAIN">
        <Description>
          <TranslatedText xml:lang="en">Domain Abbreviation</TranslatedText>
        </Description>
        <CodeListRef CodeListOID="CL.DD.DOMAIN.SDOMAIN.17466"/>
        <def:Origin Type="Other"/>
      </ItemDef>
      <ItemDef DataType="text" Length="13" Name="USUBJID" OID="IT.DD.USUBJID" SASFieldName="USUBJID">
        <Description>
          <TranslatedText xml:lang="en">Unique Subject Identifier</TranslatedText>
        </Description>
        <def:Origin Type="Other"/>
      </ItemDef>
      <ItemDef DataType="integer" Length="1" Name="DDSEQ" OID="IT.DD.DDSEQ" SASFieldName="DDSEQ">
        <Description>
          <TranslatedText xml:lang="en">Sequence Number</TranslatedText>
        </Description>
        <def:Origin Type="Derived"/>
      </ItemDef>
      <ItemDef DataType="text" Length="6" Name="DDTESTCD" OID="IT.DD.DDTESTCD" SASFieldName="DDTESTCD">
        <Description>
          <TranslatedText xml:lang="en">Death Diagnosis Short Name</TranslatedText>
        </Description>
        <CodeListRef CodeListOID="CL.DDTESTCD.17411"/>
        <def:Origin Type="Other"/>
      </ItemDef>
      <ItemDef DataType="text" Length="15" Name="DDTEST" OID="IT.DD.DDTEST" SASFieldName="DDTEST">
        <Description>
          <TranslatedText xml:lang="en">Death Diagnosis Name</TranslatedText>
        </Description>
        <CodeListRef CodeListOID="CL.DDTEST.17411"/>
        <def:Origin Type="Other"/>
      </ItemDef>
      <ItemDef DataType="text" Length="24" Name="DDORRES" OID="IT.DD.DDORRES" SASFieldName="DDORRES">
        <Description>
          <TranslatedText xml:lang="en">Result or Findings as Collected</TranslatedText>
        </Description>
        <def:Origin Type="Collected"/>
      </ItemDef>
      <ItemDef DataType="text" Length="24" Name="DDSTRESC" OID="IT.DD.DDSTRESC" SASFieldName="DDSTRESC">
        <Description>
          <TranslatedText xml:lang="en">Standardized Result in Character Format</TranslatedText>
        </Description>
        <def:Origin Type="Collected"/>
      </ItemDef>
      <ItemDef DataType="text" Length="12" Name="DDRESCAT" OID="IT.DD.DDRESCAT" SASFieldName="DDRESCAT">
        <Description>
          <TranslatedText xml:lang="en">Result Category</TranslatedText>
        </Description>
        <def:Origin Type="Collected"/>
      </ItemDef>
      <ItemDef DataType="integer" Length="3" Name="DDDY" OID="IT.DD.DDDY" SASFieldName="DDDY">
        <Description>
          <TranslatedText xml:lang="en">Study Day of Diagnosis</TranslatedText>
        </Description>
        <def:Origin Type="Collected"/>
      </ItemDef>
      <ItemDef DataType="text" Length="2" Name="DOMAIN" OID="IT.EG.DOMAIN" SASFieldName="DOMAIN">
        <Description>
          <TranslatedText xml:lang="en">Domain Abbreviation</TranslatedText>
        </Description>
        <CodeListRef CodeListOID="CL.EG.DOMAIN.SDOMAIN.17471"/>
        <def:Origin Type="Other"/>
      </ItemDef>
      <ItemDef DataType="text" Length="13" Name="USUBJID" OID="IT.EG.USUBJID" SASFieldName="USUBJID">
        <Description>
          <TranslatedText xml:lang="en">Unique Subject Identifier</TranslatedText>
        </Description>
        <def:Origin Type="Other"/>
      </ItemDef>
      <ItemDef DataType="integer" Length="1" Name="EGSEQ" OID="IT.EG.EGSEQ" SASFieldName="EGSEQ">
        <Description>
          <TranslatedText xml:lang="en">Sequence Number</TranslatedText>
        </Description>
        <def:Origin Type="Derived"/>
      </ItemDef>
      <ItemDef DataType="text" Length="6" Name="EGTESTCD" OID="IT.EG.EGTESTCD" SASFieldName="EGTESTCD">
        <Description>
          <TranslatedText xml:lang="en">ECG Test or Examination Short Name</TranslatedText>
        </Description>
        <CodeListRef CodeListOID="CL.EGTESTCD.17415"/>
        <def:Origin Type="Other"/>
      </ItemDef>
      <ItemDef DataType="text" Length="24" Name="EGTEST" OID="IT.EG.EGTEST" SASFieldName="EGTEST">
        <Description>
          <TranslatedText xml:lang="en">ECG Test or Examination Name</TranslatedText>
        </Description>
        <CodeListRef CodeListOID="CL.EGTEST.17415"/>
        <def:Origin Type="Other"/>
      </ItemDef>
      <ItemDef DataType="text" Length="5" Name="EGPOS" OID="IT.EG.EGPOS" SASFieldName="EGPOS">
        <Description>
          <TranslatedText xml:lang="en">ECG Position of Subject</TranslatedText>
        </Description>
        <CodeListRef CodeListOID="CL.POSITION.17434"/>
        <def:Origin Type="Other"/>
      </ItemDef>
      <ItemDef DataType="text" Length="3" Name="EGORRES" OID="IT.EG.EGORRES" SASFieldName="EGORRES">
        <Description>
          <TranslatedText xml:lang="en">Result or Findings as Collected</TranslatedText>
        </Description>
        <def:Origin Type="Collected"/>
      </ItemDef>
      <ItemDef DataType="text" Length="4" Name="EGORRESU" OID="IT.EG.EGORRESU" SASFieldName="EGORRESU">
        <Description>
          <TranslatedText xml:lang="en">Unit of the Original Result</TranslatedText>
        </Description>
        <CodeListRef CodeListOID="CL.2126.UNIT.21882"/>
        <def:Origin Type="Other"/>
      </ItemDef>
      <ItemDef DataType="text" Length="3" Name="EGSTRESC" OID="IT.EG.EGSTRESC" SASFieldName="EGSTRESC">
        <Description>
          <TranslatedText xml:lang="en">Standardized Result in Character Format</TranslatedText>
        </Description>
        <def:Origin Type="Collected"/>
      </ItemDef>
      <ItemDef DataType="float" Length="3" Name="EGSTRESN" OID="IT.EG.EGSTRESN" SASFieldName="EGSTRESN" SignificantDigits="0">
        <Description>
          <TranslatedText xml:lang="en">Standardized Result in Numeric Format</TranslatedText>
        </Description>
        <def:Origin Type="Collected"/>
      </ItemDef>
      <ItemDef DataType="text" Length="4" Name="EGSTRESU" OID="IT.EG.EGSTRESU" SASFieldName="EGSTRESU">
        <Description>
          <TranslatedText xml:lang="en">Unit of the Standardized Result</TranslatedText>
        </Description>
        <CodeListRef CodeListOID="CL.2126.UNIT.21882"/>
        <def:Origin Type="Other"/>
      </ItemDef>
      <ItemDef DataType="text" Length="7" Name="EGLEAD" OID="IT.EG.EGLEAD" SASFieldName="EGLEAD">
        <Description>
          <TranslatedText xml:lang="en">Location Used for Measurement</TranslatedText>
        </Description>
        <CodeListRef CodeListOID="CL.EGLEAD.17413"/>
        <def:Origin Type="Other"/>
      </ItemDef>
      <ItemDef DataType="text" Length="1" Name="EGMETHOD" OID="IT.EG.EGMETHOD" SASFieldName="EGMETHOD">
        <Description>
          <TranslatedText xml:lang="en">Method of ECG Test</TranslatedText>
        </Description>
        <def:Origin Type="Other"/>
      </ItemDef>
      <ItemDef DataType="text" Length="9" Name="EGCSTATE" OID="IT.EG.EGCSTATE" SASFieldName="EGCSTATE">
        <Description>
          <TranslatedText xml:lang="en">Consciousness State</TranslatedText>
        </Description>
        <CodeListRef CodeListOID="CL.CSTATE.17409"/>
        <def:Origin Type="Other"/>
      </ItemDef>
      <ItemDef DataType="text" Length="1" Name="EGBLFL" OID="IT.EG.EGBLFL" SASFieldName="EGBLFL">
        <Description>
          <TranslatedText xml:lang="en">Baseline Flag</TranslatedText>
        </Description>
        <CodeListRef CodeListOID="CL.NY.17426"/>
        <def:Origin Type="Other"/>
      </ItemDef>
      <ItemDef DataType="integer" Length="2" Name="VISITDY" OID="IT.EG.VISITDY" SASFieldName="VISITDY">
        <Description>
          <TranslatedText xml:lang="en">Planned Study Day of Collection</TranslatedText>
        </Description>
        <def:Origin Type="Other"/>
      </ItemDef>
      <ItemDef DataType="datetime" Name="EGDTC" OID="IT.EG.EGDTC" SASFieldName="EGDTC">
        <Description>
          <TranslatedText xml:lang="en">Date/Time of ECG</TranslatedText>
        </Description>
        <def:Origin Type="Collected"/>
      </ItemDef>
      <ItemDef DataType="integer" Length="2" Name="EGDY" OID="IT.EG.EGDY" SASFieldName="EGDY">
        <Description>
          <TranslatedText xml:lang="en">Study Day of ECG Collection</TranslatedText>
        </Description>
        <def:Origin Type="Collected"/>
      </ItemDef>
      <ItemDef DataType="text" Length="2" Name="DOMAIN" OID="IT.FW.DOMAIN" SASFieldName="DOMAIN">
        <Description>
          <TranslatedText xml:lang="en">Domain Abbreviation</TranslatedText>
        </Description>
        <CodeListRef CodeListOID="CL.FW.DOMAIN.SDOMAIN.17477"/>
        <def:Origin Type="Other"/>
      </ItemDef>
      <ItemDef DataType="text" Length="13" Name="USUBJID" OID="IT.FW.USUBJID" SASFieldName="USUBJID">
        <Description>
          <TranslatedText xml:lang="en">Unique Subject Identifier</TranslatedText>
        </Description>
        <def:Origin Type="Other"/>
      </ItemDef>
      <ItemDef DataType="integer" Length="1" Name="FWSEQ" OID="IT.FW.FWSEQ" SASFieldName="FWSEQ">
        <Description>
          <TranslatedText xml:lang="en">Sequence Number</TranslatedText>
        </Description>
        <def:Origin Type="Derived"/>
      </ItemDef>
      <ItemDef DataType="text" Length="2" Name="FWTESTCD" OID="IT.FW.FWTESTCD" SASFieldName="FWTESTCD">
        <Description>
          <TranslatedText xml:lang="en">Food /Water Consumption Short Name</TranslatedText>
        </Description>
        <CodeListRef CodeListOID="CL.FWTESTCD.17416"/>
        <def:Origin Type="Other"/>
      </ItemDef>
      <ItemDef DataType="text" Length="16" Name="FWTEST" OID="IT.FW.FWTEST" SASFieldName="FWTEST">
        <Description>
          <TranslatedText xml:lang="en">Food /Water Consumption Name</TranslatedText>
        </Description>
        <CodeListRef CodeListOID="CL.FWTEST.17416"/>
        <def:Origin Type="Other"/>
      </ItemDef>
      <ItemDef DataType="text" Length="3" Name="FWORRES" OID="IT.FW.FWORRES" SASFieldName="FWORRES">
        <Description>
          <TranslatedText xml:lang="en">Result or Findings as Collected</TranslatedText>
        </Description>
        <def:Origin Type="Collected"/>
      </ItemDef>
      <ItemDef DataType="text" Length="5" Name="FWORRESU" OID="IT.FW.FWORRESU" SASFieldName="FWORRESU">
        <Description>
          <TranslatedText xml:lang="en">Unit of the Original Result</TranslatedText>
        </Description>
        <CodeListRef CodeListOID="CL.2127.UNIT.21885"/>
        <def:Origin Type="Other"/>
      </ItemDef>
      <ItemDef DataType="text" Length="3" Name="FWSTRESC" OID="IT.FW.FWSTRESC" SASFieldName="FWSTRESC">
        <Description>
          <TranslatedText xml:lang="en">Standardized Result in Character Format</TranslatedText>
        </Description>
        <def:Origin Type="Collected"/>
      </ItemDef>
      <ItemDef DataType="float" Length="3" Name="FWSTRESN" OID="IT.FW.FWSTRESN" SASFieldName="FWSTRESN" SignificantDigits="1">
        <Description>
          <TranslatedText xml:lang="en">Standardized Result in Numeric Format</TranslatedText>
        </Description>
        <def:Origin Type="Collected"/>
      </ItemDef>
      <ItemDef DataType="text" Length="5" Name="FWSTRESU" OID="IT.FW.FWSTRESU" SASFieldName="FWSTRESU">
        <Description>
          <TranslatedText xml:lang="en">Unit of the Standardized Result</TranslatedText>
        </Description>
        <CodeListRef CodeListOID="CL.2127.UNIT.21885"/>
        <def:Origin Type="Other"/>
      </ItemDef>
      <ItemDef DataType="datetime" Name="FWDTC" OID="IT.FW.FWDTC" SASFieldName="FWDTC">
        <Description>
          <TranslatedText xml:lang="en">Date/Time of Observation</TranslatedText>
        </Description>
        <def:Origin Type="Collected"/>
      </ItemDef>
      <ItemDef DataType="datetime" Name="FWENDTC" OID="IT.FW.FWENDTC" SASFieldName="FWENDTC">
        <Description>
          <TranslatedText xml:lang="en">End Date/Time of Observation</TranslatedText>
        </Description>
        <def:Origin Type="Collected"/>
      </ItemDef>
      <ItemDef DataType="integer" Length="2" Name="FWDY" OID="IT.FW.FWDY" SASFieldName="FWDY">
        <Description>
          <TranslatedText xml:lang="en">Study Day of Observation</TranslatedText>
        </Description>
        <def:Origin Type="Collected"/>
      </ItemDef>
      <ItemDef DataType="integer" Length="3" Name="FWENDY" OID="IT.FW.FWENDY" SASFieldName="FWENDY">
        <Description>
          <TranslatedText xml:lang="en">Study Day of End of Observation</TranslatedText>
        </Description>
        <def:Origin Type="Collected"/>
      </ItemDef>
      <ItemDef DataType="text" Length="2" Name="DOMAIN" OID="IT.LB.DOMAIN" SASFieldName="DOMAIN">
        <Description>
          <TranslatedText xml:lang="en">Domain Abbreviation</TranslatedText>
        </Description>
        <CodeListRef CodeListOID="CL.LB.DOMAIN.SDOMAIN.17480"/>
        <def:Origin Type="Other"/>
      </ItemDef>
      <ItemDef DataType="text" Length="13" Name="USUBJID" OID="IT.LB.USUBJID" SASFieldName="USUBJID">
        <Description>
          <TranslatedText xml:lang="en">Unique Subject Identifier</TranslatedText>
        </Description>
        <def:Origin Type="Other"/>
      </ItemDef>
      <ItemDef DataType="integer" Length="2" Name="LBSEQ" OID="IT.LB.LBSEQ" SASFieldName="LBSEQ">
        <Description>
          <TranslatedText xml:lang="en">Sequence Number</TranslatedText>
        </Description>
        <def:Origin Type="Derived"/>
      </ItemDef>
      <ItemDef DataType="text" Length="7" Name="LBTESTCD" OID="IT.LB.LBTESTCD" SASFieldName="LBTESTCD">
        <Description>
          <TranslatedText xml:lang="en">Lab Test or Examination Short Name</TranslatedText>
        </Description>
        <CodeListRef CodeListOID="CL.LBTESTCD.17418"/>
        <def:Origin Type="Other"/>
      </ItemDef>
      <ItemDef DataType="text" Length="39" Name="LBTEST" OID="IT.LB.LBTEST" SASFieldName="LBTEST">
        <Description>
          <TranslatedText xml:lang="en">Lab Test or Examination Name</TranslatedText>
        </Description>
        <CodeListRef CodeListOID="CL.LBTEST.17418"/>
        <def:Origin Type="Other"/>
      </ItemDef>
      <ItemDef DataType="text" Length="18" Name="LBCAT" OID="IT.LB.LBCAT" SASFieldName="LBCAT">
        <Description>
          <TranslatedText xml:lang="en">Category for Lab Test</TranslatedText>
        </Description>
        <def:Origin Type="Other"/>
      </ItemDef>
      <ItemDef DataType="text" Length="11" Name="LBORRES" OID="IT.LB.LBORRES" SASFieldName="LBORRES">
        <Description>
          <TranslatedText xml:lang="en">Result or Findings as Collected</TranslatedText>
        </Description>
        <def:Origin Type="Collected"/>
      </ItemDef>
      <ItemDef DataType="text" Length="7" Name="LBORRESU" OID="IT.LB.LBORRESU" SASFieldName="LBORRESU">
        <Description>
          <TranslatedText xml:lang="en">Unit of the Original Result</TranslatedText>
        </Description>
        <CodeListRef CodeListOID="CL.2128.UNIT.21887"/>
        <def:Origin Type="Other"/>
      </ItemDef>
      <ItemDef DataType="text" Length="11" Name="LBSTRESC" OID="IT.LB.LBSTRESC" SASFieldName="LBSTRESC">
        <Description>
          <TranslatedText xml:lang="en">Standardized Result in Character Format</TranslatedText>
        </Description>
        <def:Origin Type="Collected"/>
      </ItemDef>
      <ItemDef DataType="float" Length="6" Name="LBSTRESN" OID="IT.LB.LBSTRESN" SASFieldName="LBSTRESN" SignificantDigits="4">
        <Description>
          <TranslatedText xml:lang="en">Standardized Result in Numeric Format</TranslatedText>
        </Description>
        <def:Origin Type="Collected"/>
      </ItemDef>
      <ItemDef DataType="text" Length="7" Name="LBSTRESU" OID="IT.LB.LBSTRESU" SASFieldName="LBSTRESU">
        <Description>
          <TranslatedText xml:lang="en">Unit of the Standardized Result</TranslatedText>
        </Description>
        <CodeListRef CodeListOID="CL.2128.UNIT.21887"/>
        <def:Origin Type="Other"/>
      </ItemDef>
      <ItemDef DataType="text" Length="8" Name="LBSTAT" OID="IT.LB.LBSTAT" SASFieldName="LBSTAT">
        <Description>
          <TranslatedText xml:lang="en">Completion Status</TranslatedText>
        </Description>
        <CodeListRef CodeListOID="CL.ND.17427"/>
        <def:Origin Type="Other"/>
      </ItemDef>
      <ItemDef DataType="text" Length="14" Name="LBREASND" OID="IT.LB.LBREASND" SASFieldName="LBREASND">
        <Description>
          <TranslatedText xml:lang="en">Reason Not Done</TranslatedText>
        </Description>
        <def:Origin Type="Collected"/>
      </ItemDef>
      <ItemDef DataType="text" Length="11" Name="LBSPEC" OID="IT.LB.LBSPEC" SASFieldName="LBSPEC">
        <Description>
          <TranslatedText xml:lang="en">Specimen Type</TranslatedText>
        </Description>
        <CodeListRef CodeListOID="CL.LB.LBSPEC.SPEC.17483"/>
        <def:Origin Type="Other"/>
      </ItemDef>
      <ItemDef DataType="text" Length="14" Name="LBMETHOD" OID="IT.LB.LBMETHOD" SASFieldName="LBMETHOD">
        <Description>
          <TranslatedText xml:lang="en">Method of Test or Examination</TranslatedText>
        </Description>
        <def:Origin Type="Other"/>
      </ItemDef>
      <ItemDef DataType="text" Length="1" Name="LBBLFL" OID="IT.LB.LBBLFL" SASFieldName="LBBLFL">
        <Description>
          <TranslatedText xml:lang="en">Baseline Flag</TranslatedText>
        </Description>
        <CodeListRef CodeListOID="CL.NY.17426"/>
        <def:Origin Type="Not Available"/>
      </ItemDef>
      <ItemDef DataType="integer" Length="3" Name="VISITDY" OID="IT.LB.VISITDY" SASFieldName="VISITDY">
        <Description>
          <TranslatedText xml:lang="en">Planned Study Day of Collection</TranslatedText>
        </Description>
        <def:Origin Type="Collected"/>
      </ItemDef>
      <ItemDef DataType="datetime" Name="LBDTC" OID="IT.LB.LBDTC" SASFieldName="LBDTC">
        <Description>
          <TranslatedText xml:lang="en">Date/Time of Specimen Collection</TranslatedText>
        </Description>
        <def:Origin Type="Collected"/>
      </ItemDef>
      <ItemDef DataType="integer" Length="3" Name="LBDY" OID="IT.LB.LBDY" SASFieldName="LBDY">
        <Description>
          <TranslatedText xml:lang="en">Study Day of Specimen Collection</TranslatedText>
        </Description>
        <def:Origin Type="Collected"/>
      </ItemDef>
      <ItemDef DataType="text" Length="2" Name="DOMAIN" OID="IT.MA.DOMAIN" SASFieldName="DOMAIN">
        <Description>
          <TranslatedText xml:lang="en">Domain Abbreviation</TranslatedText>
        </Description>
        <CodeListRef CodeListOID="CL.MA.DOMAIN.SDOMAIN.17484"/>
        <def:Origin Type="Other"/>
      </ItemDef>
      <ItemDef DataType="text" Length="13" Name="USUBJID" OID="IT.MA.USUBJID" SASFieldName="USUBJID">
        <Description>
          <TranslatedText xml:lang="en">Unique Subject Identifier</TranslatedText>
        </Description>
        <def:Origin Type="Other"/>
      </ItemDef>
      <ItemDef DataType="integer" Length="1" Name="MASEQ" OID="IT.MA.MASEQ" SASFieldName="MASEQ">
        <Description>
          <TranslatedText xml:lang="en">Sequence Number</TranslatedText>
        </Description>
        <def:Origin Type="Derived"/>
      </ItemDef>
      <ItemDef DataType="text" Length="1" Name="MASPID" OID="IT.MA.MASPID" SASFieldName="MASPID">
        <Description>
          <TranslatedText xml:lang="en">Mass Identifier</TranslatedText>
        </Description>
        <def:Origin Type="Collected"/>
      </ItemDef>
      <ItemDef DataType="text" Length="8" Name="MATESTCD" OID="IT.MA.MATESTCD" SASFieldName="MATESTCD">
        <Description>
          <TranslatedText xml:lang="en">Macroscopic Examination Short Name</TranslatedText>
        </Description>
        <CodeListRef CodeListOID="CL.MATESTCD.17420"/>
        <def:Origin Type="Other"/>
      </ItemDef>
      <ItemDef DataType="text" Length="30" Name="MATEST" OID="IT.MA.MATEST" SASFieldName="MATEST">
        <Description>
          <TranslatedText xml:lang="en">Macroscopic Examination Name</TranslatedText>
        </Description>
        <CodeListRef CodeListOID="CL.MATEST.17420"/>
        <def:Origin Type="Other"/>
      </ItemDef>
      <ItemDef DataType="text" Length="75" Name="MAORRES" OID="IT.MA.MAORRES" SASFieldName="MAORRES">
        <Description>
          <TranslatedText xml:lang="en">Result or Findings as Collected</TranslatedText>
        </Description>
        <def:Origin Type="Collected"/>
      </ItemDef>
      <ItemDef DataType="text" Length="18" Name="MASTRESC" OID="IT.MA.MASTRESC" SASFieldName="MASTRESC" def:CommentOID="COM.MA.MASTRESC">
        <Description>
          <TranslatedText xml:lang="en">Standardized Result in Character Format</TranslatedText>
        </Description>
        <def:Origin Type="Collected"/>
      </ItemDef>
      <ItemDef DataType="text" Length="25" Name="MASPEC" OID="IT.MA.MASPEC" SASFieldName="MASPEC">
        <Description>
          <TranslatedText xml:lang="en">Specimen Material Type</TranslatedText>
        </Description>
        <CodeListRef CodeListOID="CL.MA.MASPEC.SPEC.17485"/>
        <def:Origin Type="Other"/>
      </ItemDef>
      <ItemDef DataType="text" Length="1" Name="MAANTREG" OID="IT.MA.MAANTREG" SASFieldName="MAANTREG">
        <Description>
          <TranslatedText xml:lang="en">Anatomical Region of Specimen</TranslatedText>
        </Description>
        <def:Origin Type="Other"/>
      </ItemDef>
      <ItemDef DataType="text" Length="9" Name="MALAT" OID="IT.MA.MALAT" SASFieldName="MALAT">
        <Description>
          <TranslatedText xml:lang="en">Specimen Laterality within Subject</TranslatedText>
        </Description>
        <CodeListRef CodeListOID="CL.MA.MALAT.LAT.17486"/>
        <def:Origin Type="Other"/>
      </ItemDef>
      <ItemDef DataType="text" Length="6" Name="MASEV" OID="IT.MA.MASEV" SASFieldName="MASEV">
        <Description>
          <TranslatedText xml:lang="en">Severity</TranslatedText>
        </Description>
        <CodeListRef CodeListOID="CL.MA.MASEV.SEV.17487"/>
        <def:Origin Type="Collected"/>
      </ItemDef>
      <ItemDef DataType="integer" Length="3" Name="MADY" OID="IT.MA.MADY" SASFieldName="MADY">
        <Description>
          <TranslatedText xml:lang="en">Study Day of Specimen Collection</TranslatedText>
        </Description>
        <def:Origin Type="Collected"/>
      </ItemDef>
      <ItemDef DataType="text" Length="2" Name="DOMAIN" OID="IT.MI.DOMAIN" SASFieldName="DOMAIN">
        <Description>
          <TranslatedText xml:lang="en">Domain Abbreviation</TranslatedText>
        </Description>
        <CodeListRef CodeListOID="CL.MI.DOMAIN.SDOMAIN.17488"/>
        <def:Origin Type="Other"/>
      </ItemDef>
      <ItemDef DataType="text" Length="13" Name="USUBJID" OID="IT.MI.USUBJID" SASFieldName="USUBJID">
        <Description>
          <TranslatedText xml:lang="en">Unique Subject Identifier</TranslatedText>
        </Description>
        <def:Origin Type="Other"/>
      </ItemDef>
      <ItemDef DataType="integer" Length="2" Name="MISEQ" OID="IT.MI.MISEQ" SASFieldName="MISEQ">
        <Description>
          <TranslatedText xml:lang="en">Sequence Number</TranslatedText>
        </Description>
        <def:Origin Type="Derived"/>
      </ItemDef>
      <ItemDef DataType="text" Length="1" Name="MISPID" OID="IT.MI.MISPID" SASFieldName="MISPID">
        <Description>
          <TranslatedText xml:lang="en">Mass Identifier</TranslatedText>
        </Description>
        <def:Origin Type="Collected"/>
      </ItemDef>
      <ItemDef DataType="text" Length="6" Name="MITESTCD" OID="IT.MI.MITESTCD" SASFieldName="MITESTCD">
        <Description>
          <TranslatedText xml:lang="en">Microscopic Examination Short Name</TranslatedText>
        </Description>
        <CodeListRef CodeListOID="CL.MITESTCD.17422"/>
        <def:Origin Type="Other"/>
      </ItemDef>
      <ItemDef DataType="text" Length="23" Name="MITEST" OID="IT.MI.MITEST" SASFieldName="MITEST">
        <Description>
          <TranslatedText xml:lang="en">Microscopic Examination Name</TranslatedText>
        </Description>
        <CodeListRef CodeListOID="CL.MITEST.17422"/>
        <def:Origin Type="Other"/>
      </ItemDef>
      <ItemDef DataType="text" Length="65" Name="MIORRES" OID="IT.MI.MIORRES" SASFieldName="MIORRES">
        <Description>
          <TranslatedText xml:lang="en">Result or Findings as Collected</TranslatedText>
        </Description>
        <def:Origin Type="Collected"/>
      </ItemDef>
      <ItemDef DataType="text" Length="29" Name="MISTRESC" OID="IT.MI.MISTRESC" SASFieldName="MISTRESC" def:CommentOID="COM.MI.MISTRESC">
        <Description>
          <TranslatedText xml:lang="en">Standardized Result in Character Format</TranslatedText>
        </Description>
        <def:Origin Type="Collected"/>
      </ItemDef>
      <ItemDef DataType="text" Length="9" Name="MIRESCAT" OID="IT.MI.MIRESCAT" SASFieldName="MIRESCAT">
        <Description>
          <TranslatedText xml:lang="en">Result Category</TranslatedText>
        </Description>
        <CodeListRef CodeListOID="CL.MIRESCAT.17423"/>
        <def:Origin Type="Collected"/>
      </ItemDef>
      <ItemDef DataType="text" Length="8" Name="MISTAT" OID="IT.MI.MISTAT" SASFieldName="MISTAT">
        <Description>
          <TranslatedText xml:lang="en">Completion Status</TranslatedText>
        </Description>
        <CodeListRef CodeListOID="CL.ND.17427"/>
        <def:Origin Type="Other"/>
      </ItemDef>
      <ItemDef DataType="text" Length="18" Name="MIREASND" OID="IT.MI.MIREASND" SASFieldName="MIREASND">
        <Description>
          <TranslatedText xml:lang="en">Reason Not Done</TranslatedText>
        </Description>
        <def:Origin Type="Collected"/>
      </ItemDef>
      <ItemDef DataType="text" Length="30" Name="MISPEC" OID="IT.MI.MISPEC" SASFieldName="MISPEC">
        <Description>
          <TranslatedText xml:lang="en">Specimen Material Type</TranslatedText>
        </Description>
        <CodeListRef CodeListOID="CL.MI.MISPEC.SPEC.17490"/>
        <def:Origin Type="Other"/>
      </ItemDef>
      <ItemDef DataType="text" Length="6" Name="MIANTREG" OID="IT.MI.MIANTREG" SASFieldName="MIANTREG">
        <Description>
          <TranslatedText xml:lang="en">Anatomical Region of Specimen</TranslatedText>
        </Description>
        <def:Origin Type="Other"/>
      </ItemDef>
      <ItemDef DataType="text" Length="9" Name="MISPCCND" OID="IT.MI.MISPCCND" SASFieldName="MISPCCND">
        <Description>
          <TranslatedText xml:lang="en">Specimen Condition</TranslatedText>
        </Description>
        <def:Origin Type="Other"/>
      </ItemDef>
      <ItemDef DataType="text" Length="1" Name="MISPCUFL" OID="IT.MI.MISPCUFL" SASFieldName="MISPCUFL">
        <Description>
          <TranslatedText xml:lang="en">Specimen Usability for the Test</TranslatedText>
        </Description>
        <CodeListRef CodeListOID="CL.MI.MISPCUFL.NY.17491"/>
        <def:Origin Type="Collected"/>
      </ItemDef>
      <ItemDef DataType="text" Length="5" Name="MILAT" OID="IT.MI.MILAT" SASFieldName="MILAT">
        <Description>
          <TranslatedText xml:lang="en">Specimen Laterality within Subject</TranslatedText>
        </Description>
        <CodeListRef CodeListOID="CL.MI.MILAT.LAT.17492"/>
        <def:Origin Type="Other"/>
      </ItemDef>
      <ItemDef DataType="text" Length="7" Name="MIDIR" OID="IT.MI.MIDIR" SASFieldName="MIDIR">
        <Description>
          <TranslatedText xml:lang="en">Specimen Directionality within Subject</TranslatedText>
        </Description>
        <CodeListRef CodeListOID="CL.DIR.17412"/>
        <def:Origin Type="Other"/>
      </ItemDef>
      <ItemDef DataType="text" Length="6" Name="MISEV" OID="IT.MI.MISEV" SASFieldName="MISEV">
        <Description>
          <TranslatedText xml:lang="en">Severity</TranslatedText>
        </Description>
        <CodeListRef CodeListOID="CL.MI.MISEV.SEV.17494"/>
        <def:Origin Type="Collected"/>
      </ItemDef>
      <ItemDef DataType="text" Length="1" Name="MIDTHREL" OID="IT.MI.MIDTHREL" SASFieldName="MIDTHREL">
        <Description>
          <TranslatedText xml:lang="en">Relationship to Death</TranslatedText>
        </Description>
        <CodeListRef CodeListOID="CL.NY.17426"/>
        <def:Origin Type="Collected"/>
      </ItemDef>
      <ItemDef DataType="integer" Length="3" Name="MIDY" OID="IT.MI.MIDY" SASFieldName="MIDY">
        <Description>
          <TranslatedText xml:lang="en">Study Day of Specimen Collection</TranslatedText>
        </Description>
        <def:Origin Type="Collected"/>
      </ItemDef>
      <ItemDef DataType="text" Length="2" Name="DOMAIN" OID="IT.OM.DOMAIN" SASFieldName="DOMAIN">
        <Description>
          <TranslatedText xml:lang="en">Domain Abbreviation</TranslatedText>
        </Description>
        <CodeListRef CodeListOID="CL.OM.DOMAIN.SDOMAIN.17497"/>
        <def:Origin Type="Other"/>
      </ItemDef>
      <ItemDef DataType="text" Length="13" Name="USUBJID" OID="IT.OM.USUBJID" SASFieldName="USUBJID">
        <Description>
          <TranslatedText xml:lang="en">Unique Subject Identifier</TranslatedText>
        </Description>
        <def:Origin Type="Other"/>
      </ItemDef>
      <ItemDef DataType="integer" Length="2" Name="OMSEQ" OID="IT.OM.OMSEQ" SASFieldName="OMSEQ">
        <Description>
          <TranslatedText xml:lang="en">Sequence Number</TranslatedText>
        </Description>
        <def:Origin Type="Derived"/>
      </ItemDef>
      <ItemDef DataType="text" Length="6" Name="OMTESTCD" OID="IT.OM.OMTESTCD" SASFieldName="OMTESTCD">
        <Description>
          <TranslatedText xml:lang="en">Test Short Name</TranslatedText>
        </Description>
        <CodeListRef CodeListOID="CL.OMTESTCD.17428"/>
        <def:Origin Type="Other"/>
      </ItemDef>
      <ItemDef DataType="text" Length="6" Name="OMTEST" OID="IT.OM.OMTEST" SASFieldName="OMTEST">
        <Description>
          <TranslatedText xml:lang="en">Test Name</TranslatedText>
        </Description>
        <CodeListRef CodeListOID="CL.OMTEST.17428"/>
        <def:Origin Type="Other"/>
      </ItemDef>
      <ItemDef DataType="text" Length="14" Name="OMORRES" OID="IT.OM.OMORRES" SASFieldName="OMORRES">
        <Description>
          <TranslatedText xml:lang="en">Result or Findings as Collected</TranslatedText>
        </Description>
        <def:Origin Type="Collected"/>
      </ItemDef>
      <ItemDef DataType="text" Length="1" Name="OMORRESU" OID="IT.OM.OMORRESU" SASFieldName="OMORRESU">
        <Description>
          <TranslatedText xml:lang="en">Unit of the Original Result</TranslatedText>
        </Description>
        <CodeListRef CodeListOID="CL.2125.UNIT.21877"/>
        <def:Origin Type="Other"/>
      </ItemDef>
      <ItemDef DataType="text" Length="14" Name="OMSTRESC" OID="IT.OM.OMSTRESC" SASFieldName="OMSTRESC">
        <Description>
          <TranslatedText xml:lang="en">Standardized Result in Character Format</TranslatedText>
        </Description>
        <def:Origin Type="Collected"/>
      </ItemDef>
      <ItemDef DataType="float" Length="9" Name="OMSTRESN" OID="IT.OM.OMSTRESN" SASFieldName="OMSTRESN" SignificantDigits="7">
        <Description>
          <TranslatedText xml:lang="en">Standardized Result in Numeric Format</TranslatedText>
        </Description>
        <def:Origin Type="Collected"/>
      </ItemDef>
      <ItemDef DataType="text" Length="1" Name="OMSTRESU" OID="IT.OM.OMSTRESU" SASFieldName="OMSTRESU">
        <Description>
          <TranslatedText xml:lang="en">Unit of the Standardized Result</TranslatedText>
        </Description>
        <CodeListRef CodeListOID="CL.2125.UNIT.21877"/>
        <def:Origin Type="Other"/>
      </ItemDef>
      <ItemDef DataType="text" Length="16" Name="OMSPEC" OID="IT.OM.OMSPEC" SASFieldName="OMSPEC">
        <Description>
          <TranslatedText xml:lang="en">Specimen Material Type</TranslatedText>
        </Description>
        <CodeListRef CodeListOID="CL.OM.OMSPEC.SPEC.17499"/>
        <def:Origin Type="Other"/>
      </ItemDef>
      <ItemDef DataType="datetime" Name="OMDTC" OID="IT.OM.OMDTC" SASFieldName="OMDTC">
        <Description>
          <TranslatedText xml:lang="en">Date/Time Organ Weighed</TranslatedText>
        </Description>
        <def:Origin Type="Collected"/>
      </ItemDef>
      <ItemDef DataType="integer" Length="3" Name="OMDY" OID="IT.OM.OMDY" SASFieldName="OMDY">
        <Description>
          <TranslatedText xml:lang="en">Study Day of Weighing</TranslatedText>
        </Description>
        <def:Origin Type="Collected"/>
      </ItemDef>
      <ItemDef DataType="text" Length="2" Name="DOMAIN" OID="IT.PC.DOMAIN" SASFieldName="DOMAIN">
        <Description>
          <TranslatedText xml:lang="en">Domain Abbreviation</TranslatedText>
        </Description>
        <CodeListRef CodeListOID="CL.PC.DOMAIN.SDOMAIN.17501"/>
        <def:Origin Type="Other"/>
      </ItemDef>
      <ItemDef DataType="text" Length="13" Name="USUBJID" OID="IT.PC.USUBJID" SASFieldName="USUBJID">
        <Description>
          <TranslatedText xml:lang="en">Unique Subject Identifier</TranslatedText>
        </Description>
        <def:Origin Type="Other"/>
      </ItemDef>
      <ItemDef DataType="integer" Length="1" Name="PCSEQ" OID="IT.PC.PCSEQ" SASFieldName="PCSEQ">
        <Description>
          <TranslatedText xml:lang="en">Sequence Number</TranslatedText>
        </Description>
        <def:Origin Type="Derived"/>
      </ItemDef>
      <ItemDef DataType="text" Length="7" Name="PCTESTCD" OID="IT.PC.PCTESTCD" SASFieldName="PCTESTCD">
        <Description>
          <TranslatedText xml:lang="en">Test Short Name</TranslatedText>
        </Description>
        <def:Origin Type="Other"/>
      </ItemDef>
      <ItemDef DataType="text" Length="20" Name="PCTEST" OID="IT.PC.PCTEST" SASFieldName="PCTEST">
        <Description>
          <TranslatedText xml:lang="en">Test Name</TranslatedText>
        </Description>
        <def:Origin Type="Other"/>
      </ItemDef>
      <ItemDef DataType="text" Length="5" Name="PCORRES" OID="IT.PC.PCORRES" SASFieldName="PCORRES">
        <Description>
          <TranslatedText xml:lang="en">Result or Findings as Collected</TranslatedText>
        </Description>
        <def:Origin Type="Collected"/>
      </ItemDef>
      <ItemDef DataType="text" Length="5" Name="PCORRESU" OID="IT.PC.PCORRESU" SASFieldName="PCORRESU">
        <Description>
          <TranslatedText xml:lang="en">Unit of the Original Result</TranslatedText>
        </Description>
        <CodeListRef CodeListOID="CL.2129.PKUNIT.21895"/>
        <def:Origin Type="Other"/>
      </ItemDef>
      <ItemDef DataType="text" Length="5" Name="PCSTRESC" OID="IT.PC.PCSTRESC" SASFieldName="PCSTRESC">
        <Description>
          <TranslatedText xml:lang="en">Standardized Result in Character Format</TranslatedText>
        </Description>
        <def:Origin Type="Collected"/>
      </ItemDef>
      <ItemDef DataType="float" Length="5" Name="PCSTRESN" OID="IT.PC.PCSTRESN" SASFieldName="PCSTRESN" SignificantDigits="1">
        <Description>
          <TranslatedText xml:lang="en">Standardized Result in Numeric Format</TranslatedText>
        </Description>
        <def:Origin Type="Collected"/>
      </ItemDef>
      <ItemDef DataType="text" Length="5" Name="PCSTRESU" OID="IT.PC.PCSTRESU" SASFieldName="PCSTRESU">
        <Description>
          <TranslatedText xml:lang="en">Unit of the Standardized Result</TranslatedText>
        </Description>
        <CodeListRef CodeListOID="CL.2129.PKUNIT.21895"/>
        <def:Origin Type="Other"/>
      </ItemDef>
      <ItemDef DataType="text" Length="6" Name="PCSPEC" OID="IT.PC.PCSPEC" SASFieldName="PCSPEC">
        <Description>
          <TranslatedText xml:lang="en">Specimen Material Type</TranslatedText>
        </Description>
        <CodeListRef CodeListOID="CL.2130.SPEC.21897"/>
        <def:Origin Type="Other"/>
      </ItemDef>
      <ItemDef DataType="text" Length="4" Name="PCMETHOD" OID="IT.PC.PCMETHOD" SASFieldName="PCMETHOD">
        <Description>
          <TranslatedText xml:lang="en">Method of Test or Examination</TranslatedText>
        </Description>
        <def:Origin Type="Other"/>
      </ItemDef>
      <ItemDef DataType="text" Length="1" Name="PCBLFL" OID="IT.PC.PCBLFL" SASFieldName="PCBLFL">
        <Description>
          <TranslatedText xml:lang="en">Baseline Flag</TranslatedText>
        </Description>
        <CodeListRef CodeListOID="CL.NY.17426"/>
        <def:Origin Type="Not Available"/>
      </ItemDef>
      <ItemDef DataType="float" Length="2" Name="PCLLOQ" OID="IT.PC.PCLLOQ" SASFieldName="PCLLOQ" SignificantDigits="0">
        <Description>
          <TranslatedText xml:lang="en">Lower Limit of Quantitation</TranslatedText>
        </Description>
        <def:Origin Type="Other"/>
      </ItemDef>
      <ItemDef DataType="integer" Length="2" Name="VISITDY" OID="IT.PC.VISITDY" SASFieldName="VISITDY">
        <Description>
          <TranslatedText xml:lang="en">Visit Day</TranslatedText>
        </Description>
        <def:Origin Type="Collected"/>
      </ItemDef>
      <ItemDef DataType="datetime" Name="PCDTC" OID="IT.PC.PCDTC" SASFieldName="PCDTC">
        <Description>
          <TranslatedText xml:lang="en">Date/Time of Specimen Collection</TranslatedText>
        </Description>
        <def:Origin Type="Collected"/>
      </ItemDef>
      <ItemDef DataType="integer" Length="2" Name="PCDY" OID="IT.PC.PCDY" SASFieldName="PCDY">
        <Description>
          <TranslatedText xml:lang="en">Study Day of Specimen Collection</TranslatedText>
        </Description>
        <def:Origin Type="Collected"/>
      </ItemDef>
      <ItemDef DataType="text" Length="7" Name="PCTPT" OID="IT.PC.PCTPT" SASFieldName="PCTPT">
        <Description>
          <TranslatedText xml:lang="en">Planned Time Point Name</TranslatedText>
        </Description>
        <def:Origin Type="Other"/>
      </ItemDef>
      <ItemDef DataType="float" Length="3" Name="PCTPTNUM" OID="IT.PC.PCTPTNUM" SASFieldName="PCTPTNUM" SignificantDigits="1">
        <Description>
          <TranslatedText xml:lang="en">Planned Time Point Number</TranslatedText>
        </Description>
        <def:Origin Type="Other"/>
      </ItemDef>
      <ItemDef DataType="text" Length="6" Name="PCELTM" OID="IT.PC.PCELTM" SASFieldName="PCELTM">
        <Description>
          <TranslatedText xml:lang="en">Planned Elapsed Time from Time Point Ref</TranslatedText>
        </Description>
        <def:Origin Type="Other"/>
      </ItemDef>
      <ItemDef DataType="text" Length="11" Name="PCTPTREF" OID="IT.PC.PCTPTREF" SASFieldName="PCTPTREF">
        <Description>
          <TranslatedText xml:lang="en">Time Point Reference</TranslatedText>
        </Description>
        <def:Origin Type="Other"/>
      </ItemDef>
      <ItemDef DataType="datetime" Name="PCRFTDTC" OID="IT.PC.PCRFTDTC" SASFieldName="PCRFTDTC">
        <Description>
          <TranslatedText xml:lang="en">Date/Time of Reference Point</TranslatedText>
        </Description>
        <def:Origin Type="Collected"/>
      </ItemDef>
      <ItemDef DataType="text" Length="2" Name="DOMAIN" OID="IT.PM.DOMAIN" SASFieldName="DOMAIN">
        <Description>
          <TranslatedText xml:lang="en">Domain Abbreviation</TranslatedText>
        </Description>
        <CodeListRef CodeListOID="CL.PM.DOMAIN.SDOMAIN.17504"/>
        <def:Origin Type="Other"/>
      </ItemDef>
      <ItemDef DataType="text" Length="13" Name="USUBJID" OID="IT.PM.USUBJID" SASFieldName="USUBJID">
        <Description>
          <TranslatedText xml:lang="en">Unique Subject Identifier</TranslatedText>
        </Description>
        <def:Origin Type="Other"/>
      </ItemDef>
      <ItemDef DataType="integer" Length="1" Name="PMSEQ" OID="IT.PM.PMSEQ" SASFieldName="PMSEQ">
        <Description>
          <TranslatedText xml:lang="en">Sequence Number</TranslatedText>
        </Description>
        <def:Origin Type="Derived"/>
      </ItemDef>
      <ItemDef DataType="text" Length="1" Name="PMSPID" OID="IT.PM.PMSPID" SASFieldName="PMSPID">
        <Description>
          <TranslatedText xml:lang="en">Mass Identifier</TranslatedText>
        </Description>
        <def:Origin Type="Collected"/>
      </ItemDef>
      <ItemDef DataType="text" Length="5" Name="PMTESTCD" OID="IT.PM.PMTESTCD" SASFieldName="PMTESTCD">
        <Description>
          <TranslatedText xml:lang="en">Test Short Name</TranslatedText>
        </Description>
        <CodeListRef CodeListOID="CL.PHSPRPCD.17432"/>
        <def:Origin Type="Other"/>
      </ItemDef>
      <ItemDef DataType="text" Length="11" Name="PMTEST" OID="IT.PM.PMTEST" SASFieldName="PMTEST">
        <Description>
          <TranslatedText xml:lang="en">Test Name</TranslatedText>
        </Description>
        <CodeListRef CodeListOID="CL.PHSPRP.17432"/>
        <def:Origin Type="Other"/>
      </ItemDef>
      <ItemDef DataType="text" Length="23" Name="PMORRES" OID="IT.PM.PMORRES" SASFieldName="PMORRES">
        <Description>
          <TranslatedText xml:lang="en">Result or Findings as Collected</TranslatedText>
        </Description>
        <def:Origin Type="Collected"/>
      </ItemDef>
      <ItemDef DataType="text" Length="1" Name="PMORRESU" OID="IT.PM.PMORRESU" SASFieldName="PMORRESU">
        <Description>
          <TranslatedText xml:lang="en">Unit of the Original Result</TranslatedText>
        </Description>
        <CodeListRef CodeListOID="CL.UNIT.17452"/>
        <def:Origin Type="Other"/>
      </ItemDef>
      <ItemDef DataType="text" Length="10" Name="PMSTRESC" OID="IT.PM.PMSTRESC" SASFieldName="PMSTRESC">
        <Description>
          <TranslatedText xml:lang="en">Standardized Result in Character Format</TranslatedText>
        </Description>
        <def:Origin Type="Collected"/>
      </ItemDef>
      <ItemDef DataType="float" Length="1" Name="PMSTRESN" OID="IT.PM.PMSTRESN" SASFieldName="PMSTRESN" SignificantDigits="0">
        <Description>
          <TranslatedText xml:lang="en">Standardized Result in Numeric Format</TranslatedText>
        </Description>
        <def:Origin Type="Collected"/>
      </ItemDef>
      <ItemDef DataType="text" Length="1" Name="PMSTRESU" OID="IT.PM.PMSTRESU" SASFieldName="PMSTRESU">
        <Description>
          <TranslatedText xml:lang="en">Unit of the Standardized Result</TranslatedText>
        </Description>
        <CodeListRef CodeListOID="CL.UNIT.17452"/>
        <def:Origin Type="Other"/>
      </ItemDef>
      <ItemDef DataType="text" Length="13" Name="PMLOC" OID="IT.PM.PMLOC" SASFieldName="PMLOC">
        <Description>
          <TranslatedText xml:lang="en">Location of a Finding</TranslatedText>
        </Description>
        <def:Origin Type="Collected"/>
      </ItemDef>
      <ItemDef DataType="integer" Length="3" Name="VISITDY" OID="IT.PM.VISITDY" SASFieldName="VISITDY">
        <Description>
          <TranslatedText xml:lang="en">Planned Study Day of Collection</TranslatedText>
        </Description>
        <def:Origin Type="Collected"/>
      </ItemDef>
      <ItemDef DataType="datetime" Name="PMDTC" OID="IT.PM.PMDTC" SASFieldName="PMDTC">
        <Description>
          <TranslatedText xml:lang="en">Start Date/Time of Observation</TranslatedText>
        </Description>
        <def:Origin Type="Collected"/>
      </ItemDef>
      <ItemDef DataType="integer" Length="3" Name="PMDY" OID="IT.PM.PMDY" SASFieldName="PMDY">
        <Description>
          <TranslatedText xml:lang="en">Study Day of Observation</TranslatedText>
        </Description>
        <def:Origin Type="Collected"/>
      </ItemDef>
      <ItemDef DataType="text" Length="2" Name="DOMAIN" OID="IT.PP.DOMAIN" SASFieldName="DOMAIN">
        <Description>
          <TranslatedText xml:lang="en">Domain Abbreviation</TranslatedText>
        </Description>
        <CodeListRef CodeListOID="CL.PP.DOMAIN.SDOMAIN.17506"/>
        <def:Origin Type="Other"/>
      </ItemDef>
      <ItemDef DataType="text" Length="13" Name="USUBJID" OID="IT.PP.USUBJID" SASFieldName="USUBJID">
        <Description>
          <TranslatedText xml:lang="en">Unique Subject Identifier</TranslatedText>
        </Description>
        <def:Origin Type="Other"/>
      </ItemDef>
      <ItemDef DataType="integer" Length="1" Name="PPSEQ" OID="IT.PP.PPSEQ" SASFieldName="PPSEQ">
        <Description>
          <TranslatedText xml:lang="en">Sequence Number</TranslatedText>
        </Description>
        <def:Origin Type="Derived"/>
      </ItemDef>
      <ItemDef DataType="text" Length="6" Name="PPTESTCD" OID="IT.PP.PPTESTCD" SASFieldName="PPTESTCD">
        <Description>
          <TranslatedText xml:lang="en">Parameter Short Name</TranslatedText>
        </Description>
        <CodeListRef CodeListOID="CL.PKPARMCD.17430"/>
        <def:Origin Type="Other"/>
      </ItemDef>
      <ItemDef DataType="text" Length="25" Name="PPTEST" OID="IT.PP.PPTEST" SASFieldName="PPTEST">
        <Description>
          <TranslatedText xml:lang="en">Parameter Name</TranslatedText>
        </Description>
        <CodeListRef CodeListOID="CL.PKPARM.17430"/>
        <def:Origin Type="Other"/>
      </ItemDef>
      <ItemDef DataType="text" Length="6" Name="PPCAT" OID="IT.PP.PPCAT" SASFieldName="PPCAT">
        <Description>
          <TranslatedText xml:lang="en">Parameter Category</TranslatedText>
        </Description>
        <def:Origin Type="Other"/>
      </ItemDef>
      <ItemDef DataType="text" Length="8" Name="PPORRES" OID="IT.PP.PPORRES" SASFieldName="PPORRES">
        <Description>
          <TranslatedText xml:lang="en">Result or Findings as Collected</TranslatedText>
        </Description>
        <def:Origin Type="Collected"/>
      </ItemDef>
      <ItemDef DataType="text" Length="7" Name="PPORRESU" OID="IT.PP.PPORRESU" SASFieldName="PPORRESU">
        <Description>
          <TranslatedText xml:lang="en">Unit of the Original Result</TranslatedText>
        </Description>
        <CodeListRef CodeListOID="CL.PKUNIT.17429"/>
        <def:Origin Type="Other"/>
      </ItemDef>
      <ItemDef DataType="text" Length="8" Name="PPSTRESC" OID="IT.PP.PPSTRESC" SASFieldName="PPSTRESC">
        <Description>
          <TranslatedText xml:lang="en">Standardized Result in Character Format</TranslatedText>
        </Description>
        <def:Origin Type="Collected"/>
      </ItemDef>
      <ItemDef DataType="float" Length="8" Name="PPSTRESN" OID="IT.PP.PPSTRESN" SASFieldName="PPSTRESN" SignificantDigits="1">
        <Description>
          <TranslatedText xml:lang="en">Standardized Result in Numeric Format</TranslatedText>
        </Description>
        <def:Origin Type="Collected"/>
      </ItemDef>
      <ItemDef DataType="text" Length="7" Name="PPSTRESU" OID="IT.PP.PPSTRESU" SASFieldName="PPSTRESU">
        <Description>
          <TranslatedText xml:lang="en">Unit of the Standardized Result</TranslatedText>
        </Description>
        <CodeListRef CodeListOID="CL.PKUNIT.17429"/>
        <def:Origin Type="Other"/>
      </ItemDef>
      <ItemDef DataType="text" Length="8" Name="PPSTAT" OID="IT.PP.PPSTAT" SASFieldName="PPSTAT">
        <Description>
          <TranslatedText xml:lang="en">Completion Status</TranslatedText>
        </Description>
        <CodeListRef CodeListOID="CL.ND.17427"/>
        <def:Origin Type="Other"/>
      </ItemDef>
      <ItemDef DataType="text" Length="14" Name="PPREASND" OID="IT.PP.PPREASND" SASFieldName="PPREASND">
        <Description>
          <TranslatedText xml:lang="en">Reason Not Done</TranslatedText>
        </Description>
        <def:Origin Type="Collected"/>
      </ItemDef>
      <ItemDef DataType="text" Length="6" Name="PPSPEC" OID="IT.PP.PPSPEC" SASFieldName="PPSPEC">
        <Description>
          <TranslatedText xml:lang="en">Specimen Material Type</TranslatedText>
        </Description>
        <CodeListRef CodeListOID="CL.2130.SPEC.21897"/>
        <def:Origin Type="Other"/>
      </ItemDef>
      <ItemDef DataType="integer" Length="2" Name="VISITDY" OID="IT.PP.VISITDY" SASFieldName="VISITDY">
        <Description>
          <TranslatedText xml:lang="en">Planned Study Day of Collection</TranslatedText>
        </Description>
        <def:Origin Type="Collected"/>
      </ItemDef>
      <ItemDef DataType="datetime" Name="PPRFTDTC" OID="IT.PP.PPRFTDTC" SASFieldName="PPRFTDTC">
        <Description>
          <TranslatedText xml:lang="en">Date/Time of Reference Point</TranslatedText>
        </Description>
        <def:Origin Type="Not Available"/>
      </ItemDef>
      <ItemDef DataType="text" Length="2" Name="DOMAIN" OID="IT.SC.DOMAIN" SASFieldName="DOMAIN">
        <Description>
          <TranslatedText xml:lang="en">Domain Abbreviation</TranslatedText>
        </Description>
        <CodeListRef CodeListOID="CL.SC.DOMAIN.SDOMAIN.17510"/>
        <def:Origin Type="Other"/>
      </ItemDef>
      <ItemDef DataType="text" Length="13" Name="USUBJID" OID="IT.SC.USUBJID" SASFieldName="USUBJID">
        <Description>
          <TranslatedText xml:lang="en">Unique Subject Identifier</TranslatedText>
        </Description>
        <def:Origin Type="Other"/>
      </ItemDef>
      <ItemDef DataType="integer" Length="1" Name="SCSEQ" OID="IT.SC.SCSEQ" SASFieldName="SCSEQ">
        <Description>
          <TranslatedText xml:lang="en">Sequence Number</TranslatedText>
        </Description>
        <def:Origin Type="Derived"/>
      </ItemDef>
      <ItemDef DataType="text" Length="5" Name="SCTESTCD" OID="IT.SC.SCTESTCD" SASFieldName="SCTESTCD">
        <Description>
          <TranslatedText xml:lang="en">Subject Characteristic Short Name</TranslatedText>
        </Description>
        <def:Origin Type="Other"/>
      </ItemDef>
      <ItemDef DataType="text" Length="20" Name="SCTEST" OID="IT.SC.SCTEST" SASFieldName="SCTEST">
        <Description>
          <TranslatedText xml:lang="en">Subject Characteristic</TranslatedText>
        </Description>
        <def:Origin Type="Other"/>
      </ItemDef>
      <ItemDef DataType="text" Length="6" Name="SCORRES" OID="IT.SC.SCORRES" SASFieldName="SCORRES">
        <Description>
          <TranslatedText xml:lang="en">Result or Findings as Collected</TranslatedText>
        </Description>
        <def:Origin Type="Collected"/>
      </ItemDef>
      <ItemDef DataType="text" Length="6" Name="SCSTRESC" OID="IT.SC.SCSTRESC" SASFieldName="SCSTRESC">
        <Description>
          <TranslatedText xml:lang="en">Standardized Result in Character Format</TranslatedText>
        </Description>
        <def:Origin Type="Collected"/>
      </ItemDef>
      <ItemDef DataType="integer" Length="1" Name="SCDY" OID="IT.SC.SCDY" SASFieldName="SCDY">
        <Description>
          <TranslatedText xml:lang="en">Study Day of Collection</TranslatedText>
        </Description>
        <def:Origin Type="Collected"/>
      </ItemDef>
      <ItemDef DataType="text" Length="2" Name="DOMAIN" OID="IT.TF.DOMAIN" SASFieldName="DOMAIN">
        <Description>
          <TranslatedText xml:lang="en">Domain Abbreviation</TranslatedText>
        </Description>
        <CodeListRef CodeListOID="CL.TF.DOMAIN.SDOMAIN.17514"/>
        <def:Origin Type="Other"/>
      </ItemDef>
      <ItemDef DataType="text" Length="13" Name="USUBJID" OID="IT.TF.USUBJID" SASFieldName="USUBJID">
        <Description>
          <TranslatedText xml:lang="en">Unique Subject Identifier</TranslatedText>
        </Description>
        <def:Origin Type="Other"/>
      </ItemDef>
      <ItemDef DataType="integer" Length="1" Name="TFSEQ" OID="IT.TF.TFSEQ" SASFieldName="TFSEQ">
        <Description>
          <TranslatedText xml:lang="en">Sequence Number</TranslatedText>
        </Description>
        <def:Origin Type="Derived"/>
      </ItemDef>
      <ItemDef DataType="text" Length="1" Name="TFSPID" OID="IT.TF.TFSPID" SASFieldName="TFSPID">
        <Description>
          <TranslatedText xml:lang="en">Mass Number</TranslatedText>
        </Description>
        <def:Origin Type="Collected"/>
      </ItemDef>
      <ItemDef DataType="text" Length="5" Name="TFTESTCD" OID="IT.TF.TFTESTCD" SASFieldName="TFTESTCD">
        <Description>
          <TranslatedText xml:lang="en">Tumor Examination Short Name</TranslatedText>
        </Description>
        <CodeListRef CodeListOID="CL.TFTESTCD.17451"/>
        <def:Origin Type="Other"/>
      </ItemDef>
      <ItemDef DataType="text" Length="17" Name="TFTEST" OID="IT.TF.TFTEST" SASFieldName="TFTEST">
        <Description>
          <TranslatedText xml:lang="en">Tumor Examination</TranslatedText>
        </Description>
        <CodeListRef CodeListOID="CL.TFTEST.17451"/>
        <def:Origin Type="Other"/>
      </ItemDef>
      <ItemDef DataType="text" Length="31" Name="TFORRES" OID="IT.TF.TFORRES" SASFieldName="TFORRES">
        <Description>
          <TranslatedText xml:lang="en">Result or Findings as Collected</TranslatedText>
        </Description>
        <def:Origin Type="Collected"/>
      </ItemDef>
      <ItemDef DataType="text" Length="36" Name="TFSTRESC" OID="IT.TF.TFSTRESC" SASFieldName="TFSTRESC">
        <Description>
          <TranslatedText xml:lang="en">Standardized Result in Character Format</TranslatedText>
        </Description>
        <CodeListRef CodeListOID="CL.NEOPLASM.17424"/>
        <def:Origin Type="Collected"/>
      </ItemDef>
      <ItemDef DataType="text" Length="9" Name="TFRESCAT" OID="IT.TF.TFRESCAT" SASFieldName="TFRESCAT">
        <Description>
          <TranslatedText xml:lang="en">Tumor Malignancy Status</TranslatedText>
        </Description>
        <CodeListRef CodeListOID="CL.NEOSTAT.17425"/>
        <def:Origin Type="Collected"/>
      </ItemDef>
      <ItemDef DataType="text" Length="6" Name="TFSPEC" OID="IT.TF.TFSPEC" SASFieldName="TFSPEC">
        <Description>
          <TranslatedText xml:lang="en">Specimen Material Type</TranslatedText>
        </Description>
        <CodeListRef CodeListOID="CL.TF.TFSPEC.SPEC.17515"/>
        <def:Origin Type="Other"/>
      </ItemDef>
      <ItemDef DataType="text" Length="1" Name="TFDTHREL" OID="IT.TF.TFDTHREL" SASFieldName="TFDTHREL">
        <Description>
          <TranslatedText xml:lang="en">Relationship to Death</TranslatedText>
        </Description>
        <CodeListRef CodeListOID="CL.NY.17426"/>
        <def:Origin Type="Collected"/>
      </ItemDef>
      <ItemDef DataType="integer" Length="3" Name="TFDY" OID="IT.TF.TFDY" SASFieldName="TFDY">
        <Description>
          <TranslatedText xml:lang="en">Study Day of Collection</TranslatedText>
        </Description>
        <def:Origin Type="Collected"/>
      </ItemDef>
      <ItemDef DataType="integer" Length="3" Name="TFDETECT" OID="IT.TF.TFDETECT" SASFieldName="TFDETECT">
        <Description>
          <TranslatedText xml:lang="en">Time in Days to Detection of Tumor</TranslatedText>
        </Description>
        <def:Origin Type="Derived"/>
      </ItemDef>
      <ItemDef DataType="text" Length="2" Name="DOMAIN" OID="IT.VS.DOMAIN" SASFieldName="DOMAIN">
        <Description>
          <TranslatedText xml:lang="en">Domain Abbreviation</TranslatedText>
        </Description>
        <CodeListRef CodeListOID="CL.VS.DOMAIN.SDOMAIN.17522"/>
        <def:Origin Type="Other"/>
      </ItemDef>
      <ItemDef DataType="text" Length="13" Name="USUBJID" OID="IT.VS.USUBJID" SASFieldName="USUBJID">
        <Description>
          <TranslatedText xml:lang="en">Unique Subject Identifier</TranslatedText>
        </Description>
        <def:Origin Type="Other"/>
      </ItemDef>
      <ItemDef DataType="integer" Length="1" Name="VSSEQ" OID="IT.VS.VSSEQ" SASFieldName="VSSEQ">
        <Description>
          <TranslatedText xml:lang="en">Sequence Number</TranslatedText>
        </Description>
        <def:Origin Type="Derived"/>
      </ItemDef>
      <ItemDef DataType="text" Length="2" Name="VSTESTCD" OID="IT.VS.VSTESTCD" SASFieldName="VSTESTCD">
        <Description>
          <TranslatedText xml:lang="en">Vital Signs Test Short Name</TranslatedText>
        </Description>
        <CodeListRef CodeListOID="CL.VSTESTCD.17454"/>
        <def:Origin Type="Other"/>
      </ItemDef>
      <ItemDef DataType="text" Length="10" Name="VSTEST" OID="IT.VS.VSTEST" SASFieldName="VSTEST">
        <Description>
          <TranslatedText xml:lang="en">Vital Signs Test Name</TranslatedText>
        </Description>
        <CodeListRef CodeListOID="CL.VSTEST.17454"/>
        <def:Origin Type="Other"/>
      </ItemDef>
      <ItemDef DataType="text" Length="3" Name="VSORRES" OID="IT.VS.VSORRES" SASFieldName="VSORRES">
        <Description>
          <TranslatedText xml:lang="en">Result or Findings as Collected</TranslatedText>
        </Description>
        <def:Origin Type="Collected"/>
      </ItemDef>
      <ItemDef DataType="text" Length="9" Name="VSORRESU" OID="IT.VS.VSORRESU" SASFieldName="VSORRESU">
        <Description>
          <TranslatedText xml:lang="en">Unit of the Original Result</TranslatedText>
        </Description>
        <CodeListRef CodeListOID="CL.VSRESU.17453"/>
        <def:Origin Type="Other"/>
      </ItemDef>
      <ItemDef DataType="text" Length="3" Name="VSSTRESC" OID="IT.VS.VSSTRESC" SASFieldName="VSSTRESC">
        <Description>
          <TranslatedText xml:lang="en">Standardized Result in Character Format</TranslatedText>
        </Description>
        <def:Origin Type="Collected"/>
      </ItemDef>
      <ItemDef DataType="float" Length="3" Name="VSSTRESN" OID="IT.VS.VSSTRESN" SASFieldName="VSSTRESN" SignificantDigits="0">
        <Description>
          <TranslatedText xml:lang="en">Standardized Result in Numeric Format</TranslatedText>
        </Description>
        <def:Origin Type="Collected"/>
      </ItemDef>
      <ItemDef DataType="text" Length="9" Name="VSSTRESU" OID="IT.VS.VSSTRESU" SASFieldName="VSSTRESU">
        <Description>
          <TranslatedText xml:lang="en">Unit of the Standardized Result</TranslatedText>
        </Description>
        <CodeListRef CodeListOID="CL.VSRESU.17453"/>
        <def:Origin Type="Other"/>
      </ItemDef>
      <ItemDef DataType="text" Length="1" Name="VSBLFL" OID="IT.VS.VSBLFL" SASFieldName="VSBLFL">
        <Description>
          <TranslatedText xml:lang="en">Baseline Flag</TranslatedText>
        </Description>
        <CodeListRef CodeListOID="CL.NY.17426"/>
        <def:Origin Type="Other"/>
      </ItemDef>
      <ItemDef DataType="integer" Length="2" Name="VISITDY" OID="IT.VS.VISITDY" SASFieldName="VISITDY">
        <Description>
          <TranslatedText xml:lang="en">Planned Study Day of Collection</TranslatedText>
        </Description>
        <def:Origin Type="Collected"/>
      </ItemDef>
      <ItemDef DataType="datetime" Name="VSDTC" OID="IT.VS.VSDTC" SASFieldName="VSDTC">
        <Description>
          <TranslatedText xml:lang="en">Date/Time of Measurement</TranslatedText>
        </Description>
        <def:Origin Type="Collected"/>
      </ItemDef>
      <ItemDef DataType="integer" Length="2" Name="VSDY" OID="IT.VS.VSDY" SASFieldName="VSDY">
        <Description>
          <TranslatedText xml:lang="en">Study Day of Vital Signs Measurement</TranslatedText>
        </Description>
        <def:Origin Type="Collected"/>
      </ItemDef>
      <ItemDef DataType="text" Length="2" Name="RDOMAIN" OID="IT.RELREC.RDOMAIN" SASFieldName="RDOMAIN">
        <Description>
          <TranslatedText xml:lang="en">Related Domain Abbreviation</TranslatedText>
        </Description>
        <def:Origin Type="Other"/>
      </ItemDef>
      <ItemDef DataType="text" Length="13" Name="USUBJID" OID="IT.RELREC.USUBJID" SASFieldName="USUBJID">
        <Description>
          <TranslatedText xml:lang="en">Unique Subject Identifier</TranslatedText>
        </Description>
        <def:Origin Type="Other"/>
      </ItemDef>
      <ItemDef DataType="text" Length="5" Name="IDVAR" OID="IT.RELREC.IDVAR" SASFieldName="IDVAR">
        <Description>
          <TranslatedText xml:lang="en">Identifying Variable</TranslatedText>
        </Description>
        <def:Origin Type="Other"/>
      </ItemDef>
      <ItemDef DataType="text" Length="2" Name="IDVARVAL" OID="IT.RELREC.IDVARVAL" SASFieldName="IDVARVAL">
        <Description>
          <TranslatedText xml:lang="en">Identifying Variable Value</TranslatedText>
        </Description>
        <def:Origin Type="Other"/>
      </ItemDef>
      <ItemDef DataType="text" Length="1" Name="RELTYPE" OID="IT.RELREC.RELTYPE" SASFieldName="RELTYPE">
        <Description>
          <TranslatedText xml:lang="en">Relationship Type</TranslatedText>
        </Description>
        <def:Origin Type="Not Available"/>
      </ItemDef>
      <ItemDef DataType="text" Length="2" Name="RELID" OID="IT.RELREC.RELID" SASFieldName="RELID">
        <Description>
          <TranslatedText xml:lang="en">Relationship Identifier</TranslatedText>
        </Description>
        <def:Origin Type="Other"/>
      </ItemDef>
      <ItemDef DataType="text" Length="2" Name="RDOMAIN" OID="IT.SUPPMA.RDOMAIN" SASFieldName="RDOMAIN">
        <Description>
          <TranslatedText xml:lang="en">Related Domain Abbreviation</TranslatedText>
        </Description>
        <def:Origin Type="Other"/>
      </ItemDef>
      <ItemDef DataType="text" Length="13" Name="USUBJID" OID="IT.SUPPMA.USUBJID" SASFieldName="USUBJID">
        <Description>
          <TranslatedText xml:lang="en">Unique Subject Identifier</TranslatedText>
        </Description>
        <def:Origin Type="Other"/>
      </ItemDef>
      <ItemDef DataType="text" Length="5" Name="IDVAR" OID="IT.SUPPMA.IDVAR" SASFieldName="IDVAR">
        <Description>
          <TranslatedText xml:lang="en">Identifying Variable</TranslatedText>
        </Description>
        <def:Origin Type="Other"/>
      </ItemDef>
      <ItemDef DataType="text" Length="1" Name="IDVARVAL" OID="IT.SUPPMA.IDVARVAL" SASFieldName="IDVARVAL">
        <Description>
          <TranslatedText xml:lang="en">Identifying Variable Value</TranslatedText>
        </Description>
        <def:Origin Type="Other"/>
      </ItemDef>
      <ItemDef DataType="text" Length="8" Name="QNAM" OID="IT.SUPPMA.QNAM" SASFieldName="QNAM">
        <Description>
          <TranslatedText xml:lang="en">Qualifier Variable Name</TranslatedText>
        </Description>
        <def:Origin Type="Other"/>
      </ItemDef>
      <ItemDef DataType="text" Length="16" Name="QLABEL" OID="IT.SUPPMA.QLABEL" SASFieldName="QLABEL">
        <Description>
          <TranslatedText xml:lang="en">Qualifier Variable Label</TranslatedText>
        </Description>
        <def:Origin Type="Other"/>
      </ItemDef>
      <ItemDef DataType="text" Length="57" Name="QVAL" OID="IT.SUPPMA.QVAL" SASFieldName="QVAL">
        <Description>
          <TranslatedText xml:lang="en">Data Value</TranslatedText>
        </Description>
        <def:Origin Type="Collected"/>
        <def:ValueListRef ValueListOID="VL.SUPPMA.QVAL"/>
      </ItemDef>
      <ItemDef DataType="text" Length="9" Name="QORIG" OID="IT.SUPPMA.QORIG" SASFieldName="QORIG">
        <Description>
          <TranslatedText xml:lang="en">Origin</TranslatedText>
        </Description>
        <def:Origin Type="Collected"/>
      </ItemDef>
      <ItemDef DataType="text" Length="1" Name="QEVAL" OID="IT.SUPPMA.QEVAL" SASFieldName="QEVAL">
        <Description>
          <TranslatedText xml:lang="en">Evaluator</TranslatedText>
        </Description>
        <def:Origin Type="Other"/>
      </ItemDef>
      <ItemDef DataType="text" Length="2" Name="RDOMAIN" OID="IT.SUPPMI.RDOMAIN" SASFieldName="RDOMAIN">
        <Description>
          <TranslatedText xml:lang="en">Related Domain Abbreviation</TranslatedText>
        </Description>
        <def:Origin Type="Other"/>
      </ItemDef>
      <ItemDef DataType="text" Length="13" Name="USUBJID" OID="IT.SUPPMI.USUBJID" SASFieldName="USUBJID">
        <Description>
          <TranslatedText xml:lang="en">Unique Subject Identifier</TranslatedText>
        </Description>
        <def:Origin Type="Other"/>
      </ItemDef>
      <ItemDef DataType="text" Length="5" Name="IDVAR" OID="IT.SUPPMI.IDVAR" SASFieldName="IDVAR">
        <Description>
          <TranslatedText xml:lang="en">Identifying Variable</TranslatedText>
        </Description>
        <def:Origin Type="Other"/>
      </ItemDef>
      <ItemDef DataType="text" Length="2" Name="IDVARVAL" OID="IT.SUPPMI.IDVARVAL" SASFieldName="IDVARVAL">
        <Description>
          <TranslatedText xml:lang="en">Identifying Variable Value</TranslatedText>
        </Description>
        <def:Origin Type="Other"/>
      </ItemDef>
      <ItemDef DataType="text" Length="8" Name="QNAM" OID="IT.SUPPMI.QNAM" SASFieldName="QNAM">
        <Description>
          <TranslatedText xml:lang="en">Qualifier Variable Name</TranslatedText>
        </Description>
        <def:Origin Type="Other"/>
      </ItemDef>
      <ItemDef DataType="text" Length="16" Name="QLABEL" OID="IT.SUPPMI.QLABEL" SASFieldName="QLABEL">
        <Description>
          <TranslatedText xml:lang="en">Qualifier Variable Label</TranslatedText>
        </Description>
        <def:Origin Type="Other"/>
      </ItemDef>
      <ItemDef DataType="text" Length="43" Name="QVAL" OID="IT.SUPPMI.QVAL" SASFieldName="QVAL">
        <Description>
          <TranslatedText xml:lang="en">Data Value</TranslatedText>
        </Description>
        <def:Origin Type="Collected"/>
        <def:ValueListRef ValueListOID="VL.SUPPMI.QVAL"/>
      </ItemDef>
      <ItemDef DataType="text" Length="9" Name="QORIG" OID="IT.SUPPMI.QORIG" SASFieldName="QORIG">
        <Description>
          <TranslatedText xml:lang="en">Origin</TranslatedText>
        </Description>
        <def:Origin Type="Collected"/>
      </ItemDef>
      <ItemDef DataType="text" Length="1" Name="QEVAL" OID="IT.SUPPMI.QEVAL" SASFieldName="QEVAL">
        <Description>
          <TranslatedText xml:lang="en">Evaluator</TranslatedText>
        </Description>
        <def:Origin Type="Other"/>
      </ItemDef>
      <ItemDef DataType="text" Length="200" Name="QNAM" OID="IT.SUPPMA.QVAL.QNAM.5747" SASFieldName="QNAM">
        <Description>
          <TranslatedText xml:lang="en">Result Modifiers</TranslatedText>
        </Description>
        <def:Origin Type="Collected"/>
      </ItemDef>
      <ItemDef DataType="text" Length="200" Name="QNAM" OID="IT.SUPPMI.QVAL.QNAM.5748" SASFieldName="QNAM">
        <Description>
          <TranslatedText xml:lang="en">Result Modifiers</TranslatedText>
        </Description>
        <def:Origin Type="Collected"/>
      </ItemDef>
      <ItemDef DataType="text" Length="6" Name="AGEU" OID="IT.TS.TSVAL.AGEU.5749" SASFieldName="AGEU">
        <Description>
          <TranslatedText xml:lang="en">Age Unit</TranslatedText>
        </Description>
        <CodeListRef CodeListOID="CL.AGEU.17404"/>
        <def:Origin Type="Other"/>
      </ItemDef>
      <ItemDef DataType="text" Length="200" Name="SDESIGN" OID="IT.TS.TSVAL.SDESIGN.5750" SASFieldName="SDESIGN">
        <Description>
          <TranslatedText xml:lang="en">Study Design</TranslatedText>
        </Description>
        <CodeListRef CodeListOID="CL.SDESIGN.17449"/>
        <def:Origin Type="Other"/>
      </ItemDef>
      <ItemDef DataType="text" Length="200" Name="ROUTE" OID="IT.TS.TSVAL.ROUTE.5751" SASFieldName="ROUTE">
        <Description>
          <TranslatedText xml:lang="en">Route of Administration</TranslatedText>
        </Description>
        <CodeListRef CodeListOID="CL.ROUTE.17436"/>
        <def:Origin Type="Other"/>
      </ItemDef>
      <ItemDef DataType="text" Length="200" Name="SNDIGVER" OID="IT.TS.TSVAL.SNDIGVER.5752" SASFieldName="SNDIGVER">
        <Description>
          <TranslatedText xml:lang="en">SEND Implementation Guide Version</TranslatedText>
        </Description>
        <CodeListRef CodeListOID="CL.SNDIGVER.17439"/>
        <def:Origin Type="Other"/>
      </ItemDef>
      <ItemDef DataType="text" Length="200" Name="SPECIES" OID="IT.TS.TSVAL.SPECIES.5753" SASFieldName="SPECIES">
        <Description>
          <TranslatedText xml:lang="en">Species</TranslatedText>
        </Description>
        <CodeListRef CodeListOID="CL.SPECIES.17444"/>
        <def:Origin Type="Other"/>
      </ItemDef>
      <ItemDef DataType="text" Length="200" Name="STCAT" OID="IT.TS.TSVAL.STCAT.5754" SASFieldName="STCAT">
        <Description>
          <TranslatedText xml:lang="en">Study Category</TranslatedText>
        </Description>
        <CodeListRef CodeListOID="CL.STCAT.17448"/>
        <def:Origin Type="Other"/>
      </ItemDef>
      <ItemDef DataType="text" Length="200" Name="STRAIN" OID="IT.TS.TSVAL.STRAIN.5755" SASFieldName="STRAIN">
        <Description>
          <TranslatedText xml:lang="en">Strain/Substrain</TranslatedText>
        </Description>
        <CodeListRef CodeListOID="CL.STRAIN.17447"/>
        <def:Origin Type="Other"/>
      </ItemDef>
      <ItemDef DataType="text" Length="200" Name="SSTYP" OID="IT.TS.TSVAL.SSTYP.5756" SASFieldName="SSTYP">
        <Description>
          <TranslatedText xml:lang="en">Study Type</TranslatedText>
        </Description>
        <CodeListRef CodeListOID="CL.SSTYP.17450"/>
        <def:Origin Type="Other"/>
      </ItemDef>
      <ItemDef DataType="text" Length="200" Name="TFCNTRY" OID="IT.TS.TSVAL.TFCNTRY.5757" SASFieldName="TFCNTRY">
        <Description>
          <TranslatedText xml:lang="en">Test Facility Country</TranslatedText>
        </Description>
        <CodeListRef CodeListOID="CL.COUNTRY.17410"/>
        <def:Origin Type="Other"/>
      </ItemDef>
      <ItemDef DataType="text" Length="1" Name="ENVTEMPU" OID="IT.TS.TSVAL.ENVTEMPU.5758" SASFieldName="ENVTEMPU">
        <Description>
          <TranslatedText xml:lang="en">Environmental Temperature Units</TranslatedText>
        </Description>
        <CodeListRef CodeListOID="CL.UNIT.17455"/>
        <def:Origin Type="Other"/>
      </ItemDef>
      <ItemDef DataType="text" Length="200" Name="HUMIDTU" OID="IT.TS.TSVAL.HUMIDTU.5759" SASFieldName="HUMIDTU">
        <Description>
          <TranslatedText xml:lang="en">Housing Humidity Units</TranslatedText>
        </Description>
        <CodeListRef CodeListOID="CL.UNIT.17452"/>
        <def:Origin Type="Other"/>
      </ItemDef>
      <ItemDef DataType="text" Length="200" Name="MTHTRM" OID="IT.TS.TSVAL.MTHTRM.5760" SASFieldName="MTHTRM">
        <Description>
          <TranslatedText xml:lang="en">Method of Termination</TranslatedText>
        </Description>
        <CodeListRef CodeListOID="CL.MTHTRM.17421"/>
        <def:Origin Type="Other"/>
      </ItemDef>
      <ItemDef DataType="text" Length="1" Name="SRANDOM" OID="IT.TS.TSVAL.SRANDOM.5761" SASFieldName="SRANDOM">
        <Description>
          <TranslatedText xml:lang="en">Study is Randomized</TranslatedText>
        </Description>
        <CodeListRef CodeListOID="CL.NY.17456"/>
        <def:Origin Type="Other"/>
      </ItemDef>
      <ItemDef DataType="text" Length="4" Name="SEXPOP" OID="IT.TS.TSVAL.SEXPOP.5762" SASFieldName="SEXPOP">
        <Description>
          <TranslatedText xml:lang="en">Sex of Participants</TranslatedText>
        </Description>
        <CodeListRef CodeListOID="CL.SEXPOP.17443"/>
        <def:Origin Type="Other"/>
      </ItemDef>
      <ItemDef DataType="text" Length="200" Name="TSCNTRY" OID="IT.TS.TSVAL.TSCNTRY.5763" SASFieldName="TSCNTRY">
        <Description>
          <TranslatedText xml:lang="en">Test Site Country</TranslatedText>
        </Description>
        <CodeListRef CodeListOID="CL.COUNTRY.17410"/>
        <def:Origin Type="Other"/>
      </ItemDef>
      <ItemDef DataType="datetime" Name="DOSDUR" OID="IT.TS.TSVAL.DOSDUR.5764" SASFieldName="DOSDUR">
        <def:Origin Type="Other"/>
      </ItemDef>
      <ItemDef DataType="datetime" Name="EXPENDTC" OID="IT.TS.TSVAL.EXPENDTC.5765" SASFieldName="EXPENDTC">
        <def:Origin Type="Other"/>
      </ItemDef>
      <ItemDef DataType="datetime" Name="EXPSTDTC" OID="IT.TS.TSVAL.EXPSTDTC.5766" SASFieldName="EXPSTDTC">
        <def:Origin Type="Other"/>
      </ItemDef>
      <ItemDef DataType="datetime" Name="STSTDTC" OID="IT.TS.TSVAL.STSTDTC.5767" SASFieldName="STSTDTC">
        <def:Origin Type="Other"/>
      </ItemDef>
      <ItemDef DataType="datetime" Name="TRMSAC" OID="IT.TS.TSVAL.TRMSAC.5768" SASFieldName="TRMSAC">
        <def:Origin Type="Other"/>
      </ItemDef>
      <ItemDef DataType="datetime" Name="SLENGTH" OID="IT.TS.TSVAL.SLENGTH.5772" SASFieldName="SLENGTH">
        <def:Origin Type="Other"/>
      </ItemDef>
      <ItemDef DataType="datetime" Name="RECSAC" OID="IT.TS.TSVAL.RECSAC.5773" SASFieldName="RECSAC">
        <def:Origin Type="Other"/>
      </ItemDef>
      <ItemDef DataType="datetime" Name="STENDTC" OID="IT.TS.TSVAL.STENDTC.5774" SASFieldName="STENDTC">
        <def:Origin Type="Other"/>
      </ItemDef>
      <CodeList DataType="text" Name="Age Unit" OID="CL.AGEU.17404">
        <EnumeratedItem CodedValue="WEEKS">
          <Alias Context="nci:ExtCodeID" Name="C29844"/>
        </EnumeratedItem>
        <Alias Context="nci:ExtCodeID" Name="C66781"/>
      </CodeList>
      <CodeList DataType="text" Name="Body Weight Gain Test Code" OID="CL.BGTESTCD.17406">
        <CodeListItem CodedValue="BWGAIN">
          <Decode>
            <TranslatedText xml:lang="en">Body Weight Gain</TranslatedText>
          </Decode>
          <Alias Context="nci:ExtCodeID" Name="C62754"/>
        </CodeListItem>
        <Alias Context="nci:ExtCodeID" Name="C89960"/>
      </CodeList>
      <CodeList DataType="text" Name="Body Weight Gain Test Name" OID="CL.BGTEST.17406">
        <EnumeratedItem CodedValue="Body Weight Gain">
          <Alias Context="nci:ExtCodeID" Name="C62754"/>
        </EnumeratedItem>
        <Alias Context="nci:ExtCodeID" Name="C89959"/>
      </CodeList>
      <CodeList DataType="text" Name="Body Weight Test Code" OID="CL.BWTESTCD.17407">
        <CodeListItem CodedValue="BW">
          <Decode>
            <TranslatedText xml:lang="en">Body Weight</TranslatedText>
          </Decode>
          <Alias Context="nci:ExtCodeID" Name="C81328"/>
        </CodeListItem>
        <CodeListItem CodedValue="TERMBW">
          <Decode>
            <TranslatedText xml:lang="en">Terminal Body Weight</TranslatedText>
          </Decode>
          <Alias Context="nci:ExtCodeID" Name="C90464"/>
        </CodeListItem>
        <Alias Context="nci:ExtCodeID" Name="C89962"/>
      </CodeList>
      <CodeList DataType="text" Name="Body Weight Test Name" OID="CL.BWTEST.17407">
        <EnumeratedItem CodedValue="Body Weight">
          <Alias Context="nci:ExtCodeID" Name="C81328"/>
        </EnumeratedItem>
        <EnumeratedItem CodedValue="Terminal Body Weight">
          <Alias Context="nci:ExtCodeID" Name="C90464"/>
        </EnumeratedItem>
        <Alias Context="nci:ExtCodeID" Name="C89961"/>
      </CodeList>
      <CodeList DataType="text" Name="Category for Clinical Observation" OID="CL.CLCAT.17408">
        <EnumeratedItem CodedValue="CLINICAL SIGNS">
          <Alias Context="nci:ExtCodeID" Name="C100104"/>
        </EnumeratedItem>
        <EnumeratedItem CodedValue="OPHTHALMOLOGY">
          <Alias Context="nci:ExtCodeID" Name="C16939"/>
        </EnumeratedItem>
        <Alias Context="nci:ExtCodeID" Name="C89963"/>
      </CodeList>
      <CodeList DataType="text" Name="Consciousness State" OID="CL.CSTATE.17409">
        <EnumeratedItem CodedValue="CONSCIOUS">
          <Alias Context="nci:ExtCodeID" Name="C88434"/>
        </EnumeratedItem>
        <Alias Context="nci:ExtCodeID" Name="C90018"/>
      </CodeList>
      <CodeList DataType="text" Name="Country" OID="CL.COUNTRY.17410">
        <EnumeratedItem CodedValue="USA">
          <Alias Context="nci:ExtCodeID" Name="C17234"/>
        </EnumeratedItem>
        <Alias Context="nci:ExtCodeID" Name="C66786"/>
      </CodeList>
      <CodeList DataType="text" Name="Death Diagnosis Test Code" OID="CL.DDTESTCD.17411">
        <CodeListItem CodedValue="DEATHD">
          <Decode>
            <TranslatedText xml:lang="en">Death Diagnosis</TranslatedText>
          </Decode>
          <Alias Context="nci:ExtCodeID" Name="C81239"/>
        </CodeListItem>
        <Alias Context="nci:ExtCodeID" Name="C89966"/>
      </CodeList>
      <CodeList DataType="text" Name="Death Diagnosis Test Name" OID="CL.DDTEST.17411">
        <EnumeratedItem CodedValue="Death Diagnosis">
          <Alias Context="nci:ExtCodeID" Name="C81239"/>
        </EnumeratedItem>
        <Alias Context="nci:ExtCodeID" Name="C89965"/>
      </CodeList>
      <CodeList DataType="text" Name="Directionality" OID="CL.DIR.17412">
        <EnumeratedItem CodedValue="CRANIAL">
          <Alias Context="nci:ExtCodeID" Name="C37936"/>
        </EnumeratedItem>
        <EnumeratedItem CodedValue="CAUDAL">
          <Alias Context="nci:ExtCodeID" Name="C73851"/>
        </EnumeratedItem>
        <Alias Context="nci:ExtCodeID" Name="C99074"/>
      </CodeList>
      <CodeList DataType="text" Name="ECG Lead" OID="CL.EGLEAD.17413">
        <EnumeratedItem CodedValue="LEAD II">
          <Alias Context="nci:ExtCodeID" Name="C90409"/>
        </EnumeratedItem>
        <Alias Context="nci:ExtCodeID" Name="C90013"/>
      </CodeList>
      <CodeList DataType="text" Name="ECG Test Code" OID="CL.EGTESTCD.17415">
        <CodeListItem CodedValue="RRAG">
          <Decode>
            <TranslatedText xml:lang="en">RR Interval, Aggregate</TranslatedText>
          </Decode>
          <Alias Context="nci:ExtCodeID" Name="C117791"/>
        </CodeListItem>
        <CodeListItem CodedValue="PRAG">
          <Decode>
            <TranslatedText xml:lang="en">PR Interval, Aggregate</TranslatedText>
          </Decode>
          <Alias Context="nci:ExtCodeID" Name="C117773"/>
        </CodeListItem>
        <CodeListItem CodedValue="QTCBAG">
          <Decode>
            <TranslatedText xml:lang="en">QTcB Interval, Aggregate</TranslatedText>
          </Decode>
          <Alias Context="nci:ExtCodeID" Name="C117784"/>
        </CodeListItem>
        <Alias Context="nci:ExtCodeID" Name="C71153"/>
      </CodeList>
      <CodeList DataType="text" Name="ECG Test Name" OID="CL.EGTEST.17415">
        <EnumeratedItem CodedValue="RR Interval, Aggregate">
          <Alias Context="nci:ExtCodeID" Name="C117791"/>
        </EnumeratedItem>
        <EnumeratedItem CodedValue="PR Interval, Aggregate">
          <Alias Context="nci:ExtCodeID" Name="C117773"/>
        </EnumeratedItem>
        <EnumeratedItem CodedValue="QTcB Interval, Aggregate">
          <Alias Context="nci:ExtCodeID" Name="C117784"/>
        </EnumeratedItem>
        <Alias Context="nci:ExtCodeID" Name="C71152"/>
      </CodeList>
      <CodeList DataType="text" Name="Food and Water Consumption Test Code" OID="CL.FWTESTCD.17416">
        <CodeListItem CodedValue="FC">
          <Decode>
            <TranslatedText xml:lang="en">Food Consumption</TranslatedText>
          </Decode>
          <Alias Context="nci:ExtCodeID" Name="C90384"/>
        </CodeListItem>
        <Alias Context="nci:ExtCodeID" Name="C89970"/>
      </CodeList>
      <CodeList DataType="text" Name="Food and Water Consumption Test Name" OID="CL.FWTEST.17416">
        <EnumeratedItem CodedValue="Food Consumption">
          <Alias Context="nci:ExtCodeID" Name="C90384"/>
        </EnumeratedItem>
        <Alias Context="nci:ExtCodeID" Name="C89969"/>
      </CodeList>
      <CodeList DataType="text" Name="Frequency" OID="CL.FREQ.17417">
        <EnumeratedItem CodedValue="QID">
          <Alias Context="nci:ExtCodeID" Name="C64530"/>
        </EnumeratedItem>
        <Alias Context="nci:ExtCodeID" Name="C71113"/>
      </CodeList>
      <CodeList DataType="text" Name="Laboratory Test Code" OID="CL.LBTESTCD.17418">
        <CodeListItem CodedValue="ALB">
          <Decode>
            <TranslatedText xml:lang="en">Albumin</TranslatedText>
          </Decode>
          <Alias Context="nci:ExtCodeID" Name="C64431"/>
        </CodeListItem>
        <CodeListItem CodedValue="ALBGLOB">
          <Decode>
            <TranslatedText xml:lang="en">Albumin/Globulin</TranslatedText>
          </Decode>
          <Alias Context="nci:ExtCodeID" Name="C74894"/>
        </CodeListItem>
        <CodeListItem CodedValue="ALP">
          <Decode>
            <TranslatedText xml:lang="en">Alkaline Phosphatase</TranslatedText>
          </Decode>
          <Alias Context="nci:ExtCodeID" Name="C64432"/>
        </CodeListItem>
        <CodeListItem CodedValue="ALT">
          <Decode>
            <TranslatedText xml:lang="en">Alanine Aminotransferase</TranslatedText>
          </Decode>
          <Alias Context="nci:ExtCodeID" Name="C64433"/>
        </CodeListItem>
        <CodeListItem CodedValue="APTT">
          <Decode>
            <TranslatedText xml:lang="en">Activated Partial Thromboplastin Time</TranslatedText>
          </Decode>
          <Alias Context="nci:ExtCodeID" Name="C38462"/>
        </CodeListItem>
        <CodeListItem CodedValue="AST">
          <Decode>
            <TranslatedText xml:lang="en">Aspartate Aminotransferase</TranslatedText>
          </Decode>
          <Alias Context="nci:ExtCodeID" Name="C64467"/>
        </CodeListItem>
        <CodeListItem CodedValue="BASO">
          <Decode>
            <TranslatedText xml:lang="en">Basophils</TranslatedText>
          </Decode>
          <Alias Context="nci:ExtCodeID" Name="C64470"/>
        </CodeListItem>
        <CodeListItem CodedValue="BILI">
          <Decode>
            <TranslatedText xml:lang="en">Bilirubin</TranslatedText>
          </Decode>
          <Alias Context="nci:ExtCodeID" Name="C38037"/>
        </CodeListItem>
        <CodeListItem CodedValue="UREAN">
          <Decode>
            <TranslatedText xml:lang="en">Urea Nitrogen</TranslatedText>
          </Decode>
          <Alias Context="nci:ExtCodeID" Name="C125949"/>
        </CodeListItem>
        <CodeListItem CodedValue="CA">
          <Decode>
            <TranslatedText xml:lang="en">Calcium</TranslatedText>
          </Decode>
          <Alias Context="nci:ExtCodeID" Name="C64488"/>
        </CodeListItem>
        <CodeListItem CodedValue="CHOL">
          <Decode>
            <TranslatedText xml:lang="en">Cholesterol</TranslatedText>
          </Decode>
          <Alias Context="nci:ExtCodeID" Name="C105586"/>
        </CodeListItem>
        <CodeListItem CodedValue="CL">
          <Decode>
            <TranslatedText xml:lang="en">Chloride</TranslatedText>
          </Decode>
          <Alias Context="nci:ExtCodeID" Name="C64495"/>
        </CodeListItem>
        <CodeListItem CodedValue="CREAT">
          <Decode>
            <TranslatedText xml:lang="en">Creatinine</TranslatedText>
          </Decode>
          <Alias Context="nci:ExtCodeID" Name="C64547"/>
        </CodeListItem>
        <CodeListItem CodedValue="EOS">
          <Decode>
            <TranslatedText xml:lang="en">Eosinophils</TranslatedText>
          </Decode>
          <Alias Context="nci:ExtCodeID" Name="C64550"/>
        </CodeListItem>
        <CodeListItem CodedValue="FIBRINO">
          <Decode>
            <TranslatedText xml:lang="en">Fibrinogen</TranslatedText>
          </Decode>
          <Alias Context="nci:ExtCodeID" Name="C64606"/>
        </CodeListItem>
        <CodeListItem CodedValue="GGT">
          <Decode>
            <TranslatedText xml:lang="en">Gamma Glutamyl Transferase</TranslatedText>
          </Decode>
          <Alias Context="nci:ExtCodeID" Name="C64847"/>
        </CodeListItem>
        <CodeListItem CodedValue="GLOBUL">
          <Decode>
            <TranslatedText xml:lang="en">Globulin</TranslatedText>
          </Decode>
          <Alias Context="nci:ExtCodeID" Name="C74738"/>
        </CodeListItem>
        <CodeListItem CodedValue="GLUC">
          <Decode>
            <TranslatedText xml:lang="en">Glucose</TranslatedText>
          </Decode>
          <Alias Context="nci:ExtCodeID" Name="C105585"/>
        </CodeListItem>
        <CodeListItem CodedValue="HCT">
          <Decode>
            <TranslatedText xml:lang="en">Hematocrit</TranslatedText>
          </Decode>
          <Alias Context="nci:ExtCodeID" Name="C64796"/>
        </CodeListItem>
        <CodeListItem CodedValue="HGB">
          <Decode>
            <TranslatedText xml:lang="en">Hemoglobin</TranslatedText>
          </Decode>
          <Alias Context="nci:ExtCodeID" Name="C64848"/>
        </CodeListItem>
        <CodeListItem CodedValue="K">
          <Decode>
            <TranslatedText xml:lang="en">Potassium</TranslatedText>
          </Decode>
          <Alias Context="nci:ExtCodeID" Name="C64853"/>
        </CodeListItem>
        <CodeListItem CodedValue="LGUNSCE">
          <Decode>
            <TranslatedText xml:lang="en">Large Unstained Cells</TranslatedText>
          </Decode>
          <Alias Context="nci:ExtCodeID" Name="C74659"/>
        </CodeListItem>
        <CodeListItem CodedValue="LYM">
          <Decode>
            <TranslatedText xml:lang="en">Lymphocytes</TranslatedText>
          </Decode>
          <Alias Context="nci:ExtCodeID" Name="C51949"/>
        </CodeListItem>
        <CodeListItem CodedValue="MCH">
          <Decode>
            <TranslatedText xml:lang="en">Ery. Mean Corpuscular Hemoglobin</TranslatedText>
          </Decode>
          <Alias Context="nci:ExtCodeID" Name="C64797"/>
        </CodeListItem>
        <CodeListItem CodedValue="MCHC">
          <Decode>
            <TranslatedText xml:lang="en">Ery. Mean Corpuscular HGB Concentration</TranslatedText>
          </Decode>
          <Alias Context="nci:ExtCodeID" Name="C64798"/>
        </CodeListItem>
        <CodeListItem CodedValue="MCV">
          <Decode>
            <TranslatedText xml:lang="en">Ery. Mean Corpuscular Volume</TranslatedText>
          </Decode>
          <Alias Context="nci:ExtCodeID" Name="C64799"/>
        </CodeListItem>
        <CodeListItem CodedValue="MONO">
          <Decode>
            <TranslatedText xml:lang="en">Monocytes</TranslatedText>
          </Decode>
          <Alias Context="nci:ExtCodeID" Name="C64823"/>
        </CodeListItem>
        <CodeListItem CodedValue="NEUT">
          <Decode>
            <TranslatedText xml:lang="en">Neutrophils</TranslatedText>
          </Decode>
          <Alias Context="nci:ExtCodeID" Name="C63321"/>
        </CodeListItem>
        <CodeListItem CodedValue="PHOS">
          <Decode>
            <TranslatedText xml:lang="en">Phosphate</TranslatedText>
          </Decode>
          <Alias Context="nci:ExtCodeID" Name="C64857"/>
        </CodeListItem>
        <CodeListItem CodedValue="PLAT">
          <Decode>
            <TranslatedText xml:lang="en">Platelets</TranslatedText>
          </Decode>
          <Alias Context="nci:ExtCodeID" Name="C51951"/>
        </CodeListItem>
        <CodeListItem CodedValue="PROT">
          <Decode>
            <TranslatedText xml:lang="en">Protein</TranslatedText>
          </Decode>
          <Alias Context="nci:ExtCodeID" Name="C64858"/>
        </CodeListItem>
        <CodeListItem CodedValue="PT">
          <Decode>
            <TranslatedText xml:lang="en">Prothrombin Time</TranslatedText>
          </Decode>
          <Alias Context="nci:ExtCodeID" Name="C62656"/>
        </CodeListItem>
        <CodeListItem CodedValue="RBC">
          <Decode>
            <TranslatedText xml:lang="en">Erythrocytes</TranslatedText>
          </Decode>
          <Alias Context="nci:ExtCodeID" Name="C51946"/>
        </CodeListItem>
        <CodeListItem CodedValue="RDW">
          <Decode>
            <TranslatedText xml:lang="en">Erythrocytes Distribution Width</TranslatedText>
          </Decode>
          <Alias Context="nci:ExtCodeID" Name="C64800"/>
        </CodeListItem>
        <CodeListItem CodedValue="RETI">
          <Decode>
            <TranslatedText xml:lang="en">Reticulocytes</TranslatedText>
          </Decode>
          <Alias Context="nci:ExtCodeID" Name="C51947"/>
        </CodeListItem>
        <CodeListItem CodedValue="SODIUM">
          <Decode>
            <TranslatedText xml:lang="en">Sodium</TranslatedText>
          </Decode>
          <Alias Context="nci:ExtCodeID" Name="C64809"/>
        </CodeListItem>
        <CodeListItem CodedValue="TRIG">
          <Decode>
            <TranslatedText xml:lang="en">Triglycerides</TranslatedText>
          </Decode>
          <Alias Context="nci:ExtCodeID" Name="C64812"/>
        </CodeListItem>
        <CodeListItem CodedValue="WBC">
          <Decode>
            <TranslatedText xml:lang="en">Leukocytes</TranslatedText>
          </Decode>
          <Alias Context="nci:ExtCodeID" Name="C51948"/>
        </CodeListItem>
        <CodeListItem CodedValue="CLARITY">
          <Decode>
            <TranslatedText xml:lang="en">Clarity</TranslatedText>
          </Decode>
          <Alias Context="nci:ExtCodeID" Name="C96594"/>
        </CodeListItem>
        <CodeListItem CodedValue="COLOR">
          <Decode>
            <TranslatedText xml:lang="en">Color</TranslatedText>
          </Decode>
          <Alias Context="nci:ExtCodeID" Name="C64546"/>
        </CodeListItem>
        <CodeListItem CodedValue="KETONES">
          <Decode>
            <TranslatedText xml:lang="en">Ketones</TranslatedText>
          </Decode>
          <Alias Context="nci:ExtCodeID" Name="C64854"/>
        </CodeListItem>
        <CodeListItem CodedValue="OCCBLD">
          <Decode>
            <TranslatedText xml:lang="en">Occult Blood</TranslatedText>
          </Decode>
          <Alias Context="nci:ExtCodeID" Name="C74686"/>
        </CodeListItem>
        <CodeListItem CodedValue="PH">
          <Decode>
            <TranslatedText xml:lang="en">pH</TranslatedText>
          </Decode>
          <Alias Context="nci:ExtCodeID" Name="C45997"/>
        </CodeListItem>
        <CodeListItem CodedValue="SPGRAV">
          <Decode>
            <TranslatedText xml:lang="en">Specific Gravity</TranslatedText>
          </Decode>
          <Alias Context="nci:ExtCodeID" Name="C64832"/>
        </CodeListItem>
        <CodeListItem CodedValue="VOLUME">
          <Decode>
            <TranslatedText xml:lang="en">Volume</TranslatedText>
          </Decode>
          <Alias Context="nci:ExtCodeID" Name="C74720"/>
        </CodeListItem>
        <Alias Context="nci:ExtCodeID" Name="C65047"/>
      </CodeList>
      <CodeList DataType="text" Name="Laboratory Test Name" OID="CL.LBTEST.17418">
        <EnumeratedItem CodedValue="Albumin">
          <Alias Context="nci:ExtCodeID" Name="C64431"/>
        </EnumeratedItem>
        <EnumeratedItem CodedValue="Albumin/Globulin">
          <Alias Context="nci:ExtCodeID" Name="C74894"/>
        </EnumeratedItem>
        <EnumeratedItem CodedValue="Alkaline Phosphatase">
          <Alias Context="nci:ExtCodeID" Name="C64432"/>
        </EnumeratedItem>
        <EnumeratedItem CodedValue="Alanine Aminotransferase">
          <Alias Context="nci:ExtCodeID" Name="C64433"/>
        </EnumeratedItem>
        <EnumeratedItem CodedValue="Activated Partial Thromboplastin Time">
          <Alias Context="nci:ExtCodeID" Name="C38462"/>
        </EnumeratedItem>
        <EnumeratedItem CodedValue="Aspartate Aminotransferase">
          <Alias Context="nci:ExtCodeID" Name="C64467"/>
        </EnumeratedItem>
        <EnumeratedItem CodedValue="Basophils">
          <Alias Context="nci:ExtCodeID" Name="C64470"/>
        </EnumeratedItem>
        <EnumeratedItem CodedValue="Bilirubin">
          <Alias Context="nci:ExtCodeID" Name="C38037"/>
        </EnumeratedItem>
        <EnumeratedItem CodedValue="Urea Nitrogen">
          <Alias Context="nci:ExtCodeID" Name="C125949"/>
        </EnumeratedItem>
        <EnumeratedItem CodedValue="Calcium">
          <Alias Context="nci:ExtCodeID" Name="C64488"/>
        </EnumeratedItem>
        <EnumeratedItem CodedValue="Cholesterol">
          <Alias Context="nci:ExtCodeID" Name="C105586"/>
        </EnumeratedItem>
        <EnumeratedItem CodedValue="Chloride">
          <Alias Context="nci:ExtCodeID" Name="C64495"/>
        </EnumeratedItem>
        <EnumeratedItem CodedValue="Creatinine">
          <Alias Context="nci:ExtCodeID" Name="C64547"/>
        </EnumeratedItem>
        <EnumeratedItem CodedValue="Eosinophils">
          <Alias Context="nci:ExtCodeID" Name="C64550"/>
        </EnumeratedItem>
        <EnumeratedItem CodedValue="Fibrinogen">
          <Alias Context="nci:ExtCodeID" Name="C64606"/>
        </EnumeratedItem>
        <EnumeratedItem CodedValue="Gamma Glutamyl Transferase">
          <Alias Context="nci:ExtCodeID" Name="C64847"/>
        </EnumeratedItem>
        <EnumeratedItem CodedValue="Globulin">
          <Alias Context="nci:ExtCodeID" Name="C74738"/>
        </EnumeratedItem>
        <EnumeratedItem CodedValue="Glucose">
          <Alias Context="nci:ExtCodeID" Name="C105585"/>
        </EnumeratedItem>
        <EnumeratedItem CodedValue="Hematocrit">
          <Alias Context="nci:ExtCodeID" Name="C64796"/>
        </EnumeratedItem>
        <EnumeratedItem CodedValue="Hemoglobin">
          <Alias Context="nci:ExtCodeID" Name="C64848"/>
        </EnumeratedItem>
        <EnumeratedItem CodedValue="Potassium">
          <Alias Context="nci:ExtCodeID" Name="C64853"/>
        </EnumeratedItem>
        <EnumeratedItem CodedValue="Large Unstained Cells">
          <Alias Context="nci:ExtCodeID" Name="C74659"/>
        </EnumeratedItem>
        <EnumeratedItem CodedValue="Lymphocytes">
          <Alias Context="nci:ExtCodeID" Name="C51949"/>
        </EnumeratedItem>
        <EnumeratedItem CodedValue="Ery. Mean Corpuscular Hemoglobin">
          <Alias Context="nci:ExtCodeID" Name="C64797"/>
        </EnumeratedItem>
        <EnumeratedItem CodedValue="Ery. Mean Corpuscular HGB Concentration">
          <Alias Context="nci:ExtCodeID" Name="C64798"/>
        </EnumeratedItem>
        <EnumeratedItem CodedValue="Ery. Mean Corpuscular Volume">
          <Alias Context="nci:ExtCodeID" Name="C64799"/>
        </EnumeratedItem>
        <EnumeratedItem CodedValue="Monocytes">
          <Alias Context="nci:ExtCodeID" Name="C64823"/>
        </EnumeratedItem>
        <EnumeratedItem CodedValue="Neutrophils">
          <Alias Context="nci:ExtCodeID" Name="C63321"/>
        </EnumeratedItem>
        <EnumeratedItem CodedValue="Phosphate">
          <Alias Context="nci:ExtCodeID" Name="C64857"/>
        </EnumeratedItem>
        <EnumeratedItem CodedValue="Platelets">
          <Alias Context="nci:ExtCodeID" Name="C51951"/>
        </EnumeratedItem>
        <EnumeratedItem CodedValue="Protein">
          <Alias Context="nci:ExtCodeID" Name="C64858"/>
        </EnumeratedItem>
        <EnumeratedItem CodedValue="Prothrombin Time">
          <Alias Context="nci:ExtCodeID" Name="C62656"/>
        </EnumeratedItem>
        <EnumeratedItem CodedValue="Erythrocytes">
          <Alias Context="nci:ExtCodeID" Name="C51946"/>
        </EnumeratedItem>
        <EnumeratedItem CodedValue="Erythrocytes Distribution Width">
          <Alias Context="nci:ExtCodeID" Name="C64800"/>
        </EnumeratedItem>
        <EnumeratedItem CodedValue="Reticulocytes">
          <Alias Context="nci:ExtCodeID" Name="C51947"/>
        </EnumeratedItem>
        <EnumeratedItem CodedValue="Sodium">
          <Alias Context="nci:ExtCodeID" Name="C64809"/>
        </EnumeratedItem>
        <EnumeratedItem CodedValue="Triglycerides">
          <Alias Context="nci:ExtCodeID" Name="C64812"/>
        </EnumeratedItem>
        <EnumeratedItem CodedValue="Leukocytes">
          <Alias Context="nci:ExtCodeID" Name="C51948"/>
        </EnumeratedItem>
        <EnumeratedItem CodedValue="Clarity">
          <Alias Context="nci:ExtCodeID" Name="C96594"/>
        </EnumeratedItem>
        <EnumeratedItem CodedValue="Color">
          <Alias Context="nci:ExtCodeID" Name="C64546"/>
        </EnumeratedItem>
        <EnumeratedItem CodedValue="Ketones">
          <Alias Context="nci:ExtCodeID" Name="C64854"/>
        </EnumeratedItem>
        <EnumeratedItem CodedValue="Occult Blood">
          <Alias Context="nci:ExtCodeID" Name="C74686"/>
        </EnumeratedItem>
        <EnumeratedItem CodedValue="pH">
          <Alias Context="nci:ExtCodeID" Name="C45997"/>
        </EnumeratedItem>
        <EnumeratedItem CodedValue="Specific Gravity">
          <Alias Context="nci:ExtCodeID" Name="C64832"/>
        </EnumeratedItem>
        <EnumeratedItem CodedValue="Volume">
          <Alias Context="nci:ExtCodeID" Name="C74720"/>
        </EnumeratedItem>
        <Alias Context="nci:ExtCodeID" Name="C67154"/>
      </CodeList>
      <CodeList DataType="text" Name="Macroscopic Findings Test Code" OID="CL.MATESTCD.17420">
        <CodeListItem CodedValue="GROSPATH">
          <Decode>
            <TranslatedText xml:lang="en">Gross Pathological Examination</TranslatedText>
          </Decode>
          <Alias Context="nci:ExtCodeID" Name="C90390"/>
        </CodeListItem>
        <Alias Context="nci:ExtCodeID" Name="C89972"/>
      </CodeList>
      <CodeList DataType="text" Name="Macroscopic Findings Test Name" OID="CL.MATEST.17420">
        <EnumeratedItem CodedValue="Gross Pathological Examination">
          <Alias Context="nci:ExtCodeID" Name="C90390"/>
        </EnumeratedItem>
        <Alias Context="nci:ExtCodeID" Name="C89971"/>
      </CodeList>
      <CodeList DataType="text" Name="Method of Termination" OID="CL.MTHTRM.17421">
        <EnumeratedItem CodedValue="ANESTHETIZED EXSANGUINATION">
          <Alias Context="nci:ExtCodeID" Name="C90357"/>
        </EnumeratedItem>
        <Alias Context="nci:ExtCodeID" Name="C89975"/>
      </CodeList>
      <CodeList DataType="text" Name="Microscopic Findings Test Code" OID="CL.MITESTCD.17422">
        <CodeListItem CodedValue="MIEXAM" def:ExtendedValue="Yes">
          <Decode>
            <TranslatedText xml:lang="en">Microscopic Examination</TranslatedText>
          </Decode>
        </CodeListItem>
        <Alias Context="nci:ExtCodeID" Name="C89974"/>
      </CodeList>
      <CodeList DataType="text" Name="Microscopic Findings Test Name" OID="CL.MITEST.17422">
        <EnumeratedItem CodedValue="Microscopic Examination" def:ExtendedValue="Yes"/>
        <Alias Context="nci:ExtCodeID" Name="C89973"/>
      </CodeList>
      <CodeList DataType="text" Name="Microscopic Histopathology Result Category" OID="CL.MIRESCAT.17423">
        <EnumeratedItem CodedValue="BENIGN">
          <Alias Context="nci:ExtCodeID" Name="C14172"/>
        </EnumeratedItem>
        <EnumeratedItem CodedValue="MALIGNANT">
          <Alias Context="nci:ExtCodeID" Name="C14143"/>
        </EnumeratedItem>
        <Alias Context="nci:ExtCodeID" Name="C90017"/>
      </CodeList>
      <CodeList DataType="text" Name="Neoplasm Type" OID="CL.NEOPLASM.17424">
        <EnumeratedItem CodedValue="LEIOMYOMA, BENIGN">
          <Alias Context="nci:ExtCodeID" Name="C3157"/>
        </EnumeratedItem>
        <EnumeratedItem CodedValue="CARCINOMA, HEPATOCELLULAR, MALIGNANT">
          <Alias Context="nci:ExtCodeID" Name="C3099"/>
        </EnumeratedItem>
        <EnumeratedItem CodedValue="ADENOMA, HEPATOCELLULAR, BENIGN">
          <Alias Context="nci:ExtCodeID" Name="C3758"/>
        </EnumeratedItem>
        <Alias Context="nci:ExtCodeID" Name="C88025"/>
      </CodeList>
      <CodeList DataType="text" Name="Neoplastic Status" OID="CL.NEOSTAT.17425">
        <EnumeratedItem CodedValue="BENIGN">
          <Alias Context="nci:ExtCodeID" Name="C14172"/>
        </EnumeratedItem>
        <EnumeratedItem CodedValue="MALIGNANT">
          <Alias Context="nci:ExtCodeID" Name="C14143"/>
        </EnumeratedItem>
        <Alias Context="nci:ExtCodeID" Name="C90004"/>
      </CodeList>
      <CodeList DataType="text" Name="No Yes Response" OID="CL.NY.17426">
        <EnumeratedItem CodedValue="N">
          <Alias Context="nci:ExtCodeID" Name="C49487"/>
        </EnumeratedItem>
        <EnumeratedItem CodedValue="Y">
          <Alias Context="nci:ExtCodeID" Name="C49488"/>
        </EnumeratedItem>
        <Alias Context="nci:ExtCodeID" Name="C66742"/>
      </CodeList>
      <CodeList DataType="text" Name="Not Done" OID="CL.ND.17427">
        <EnumeratedItem CodedValue="NOT DONE">
          <Alias Context="nci:ExtCodeID" Name="C49484"/>
        </EnumeratedItem>
        <Alias Context="nci:ExtCodeID" Name="C66789"/>
      </CodeList>
      <CodeList DataType="text" Name="Organ Measurement Test Code" OID="CL.OMTESTCD.17428">
        <CodeListItem CodedValue="WEIGHT">
          <Decode>
            <TranslatedText xml:lang="en">Weight</TranslatedText>
          </Decode>
          <Alias Context="nci:ExtCodeID" Name="C25208"/>
        </CodeListItem>
        <Alias Context="nci:ExtCodeID" Name="C89977"/>
      </CodeList>
      <CodeList DataType="text" Name="Organ Measurement Test Name" OID="CL.OMTEST.17428">
        <EnumeratedItem CodedValue="Weight">
          <Alias Context="nci:ExtCodeID" Name="C25208"/>
        </EnumeratedItem>
        <Alias Context="nci:ExtCodeID" Name="C89976"/>
      </CodeList>
      <CodeList DataType="text" Name="PK Parameter Units of Measure" OID="CL.PKUNIT.17429">
        <EnumeratedItem CodedValue="ng/mL">
          <Alias Context="nci:ExtCodeID" Name="C67306"/>
        </EnumeratedItem>
        <EnumeratedItem CodedValue="h">
          <Alias Context="nci:ExtCodeID" Name="C25529"/>
        </EnumeratedItem>
        <EnumeratedItem CodedValue="h*ng/mL">
          <Alias Context="nci:ExtCodeID" Name="C85624"/>
        </EnumeratedItem>
        <Alias Context="nci:ExtCodeID" Name="C85494"/>
      </CodeList>
      <CodeList DataType="text" Name="PK Parameters" OID="CL.PKPARM.17430">
        <EnumeratedItem CodedValue="Max Conc">
          <Alias Context="nci:ExtCodeID" Name="C70918"/>
        </EnumeratedItem>
        <EnumeratedItem CodedValue="Time of CMAX">
          <Alias Context="nci:ExtCodeID" Name="C70919"/>
        </EnumeratedItem>
        <EnumeratedItem CodedValue="Time of Last Nonzero Conc">
          <Alias Context="nci:ExtCodeID" Name="C85822"/>
        </EnumeratedItem>
        <EnumeratedItem CodedValue="AUC to Last Nonzero Conc">
          <Alias Context="nci:ExtCodeID" Name="C85565"/>
        </EnumeratedItem>
        <EnumeratedItem CodedValue="AUC Infinity Obs">
          <Alias Context="nci:ExtCodeID" Name="C85761"/>
        </EnumeratedItem>
        <EnumeratedItem CodedValue="AUC Over Dosing Interval">
          <Alias Context="nci:ExtCodeID" Name="C85567"/>
        </EnumeratedItem>
        <Alias Context="nci:ExtCodeID" Name="C85493"/>
      </CodeList>
      <CodeList DataType="text" Name="PK Parameters Code" OID="CL.PKPARMCD.17430">
        <CodeListItem CodedValue="CMAX">
          <Decode>
            <TranslatedText xml:lang="en">Max Conc</TranslatedText>
          </Decode>
          <Alias Context="nci:ExtCodeID" Name="C70918"/>
        </CodeListItem>
        <CodeListItem CodedValue="TMAX">
          <Decode>
            <TranslatedText xml:lang="en">Time of CMAX</TranslatedText>
          </Decode>
          <Alias Context="nci:ExtCodeID" Name="C70919"/>
        </CodeListItem>
        <CodeListItem CodedValue="TLST">
          <Decode>
            <TranslatedText xml:lang="en">Time of Last Nonzero Conc</TranslatedText>
          </Decode>
          <Alias Context="nci:ExtCodeID" Name="C85822"/>
        </CodeListItem>
        <CodeListItem CodedValue="AUCLST">
          <Decode>
            <TranslatedText xml:lang="en">AUC to Last Nonzero Conc</TranslatedText>
          </Decode>
          <Alias Context="nci:ExtCodeID" Name="C85565"/>
        </CodeListItem>
        <CodeListItem CodedValue="AUCIFO">
          <Decode>
            <TranslatedText xml:lang="en">AUC Infinity Obs</TranslatedText>
          </Decode>
          <Alias Context="nci:ExtCodeID" Name="C85761"/>
        </CodeListItem>
        <CodeListItem CodedValue="AUCTAU">
          <Decode>
            <TranslatedText xml:lang="en">AUC Over Dosing Interval</TranslatedText>
          </Decode>
          <Alias Context="nci:ExtCodeID" Name="C85567"/>
        </CodeListItem>
        <Alias Context="nci:ExtCodeID" Name="C85839"/>
      </CodeList>
      <CodeList DataType="text" Name="Pharmaceutical Dosage Form" OID="CL.FRM.17431">
        <EnumeratedItem CodedValue="SOLUTION">
          <Alias Context="nci:ExtCodeID" Name="C42986"/>
        </EnumeratedItem>
        <Alias Context="nci:ExtCodeID" Name="C66726"/>
      </CodeList>
      <CodeList DataType="text" Name="Physical Properties Test Code" OID="CL.PHSPRPCD.17432">
        <CodeListItem CodedValue="DESCR">
          <Decode>
            <TranslatedText xml:lang="en">Description</TranslatedText>
          </Decode>
          <Alias Context="nci:ExtCodeID" Name="C25365"/>
        </CodeListItem>
        <Alias Context="nci:ExtCodeID" Name="C95121"/>
      </CodeList>
      <CodeList DataType="text" Name="Physical Properties Test Name" OID="CL.PHSPRP.17432">
        <EnumeratedItem CodedValue="Description">
          <Alias Context="nci:ExtCodeID" Name="C25365"/>
        </EnumeratedItem>
        <Alias Context="nci:ExtCodeID" Name="C95120"/>
      </CodeList>
      <CodeList DataType="text" Name="Position" OID="CL.POSITION.17434">
        <EnumeratedItem CodedValue="PRONE">
          <Alias Context="nci:ExtCodeID" Name="C62165"/>
        </EnumeratedItem>
        <Alias Context="nci:ExtCodeID" Name="C71148"/>
      </CodeList>
      <CodeList DataType="text" Name="Route of Administration" OID="CL.ROUTE.17436">
        <EnumeratedItem CodedValue="ORAL GAVAGE">
          <Alias Context="nci:ExtCodeID" Name="C78374"/>
        </EnumeratedItem>
        <Alias Context="nci:ExtCodeID" Name="C66729"/>
      </CodeList>
      <CodeList DataType="text" Name="SEND Implementation Guide Version" OID="CL.SNDIGVER.17439">
        <EnumeratedItem CodedValue="SEND IMPLEMENTATION GUIDE VERSION 3.0">
          <Alias Context="nci:ExtCodeID" Name="C96371"/>
        </EnumeratedItem>
        <Alias Context="nci:ExtCodeID" Name="C89982"/>
      </CodeList>
      <CodeList DataType="text" Name="Sex" OID="CL.SEX.17442">
        <EnumeratedItem CodedValue="M">
          <Alias Context="nci:ExtCodeID" Name="C20197"/>
        </EnumeratedItem>
        <EnumeratedItem CodedValue="F">
          <Alias Context="nci:ExtCodeID" Name="C16576"/>
        </EnumeratedItem>
        <Alias Context="nci:ExtCodeID" Name="C66731"/>
      </CodeList>
      <CodeList DataType="text" Name="Sex of Participants" OID="CL.SEXPOP.17443">
        <EnumeratedItem CodedValue="BOTH">
          <Alias Context="nci:ExtCodeID" Name="C49636"/>
        </EnumeratedItem>
        <Alias Context="nci:ExtCodeID" Name="C66732"/>
      </CodeList>
      <CodeList DataType="text" Name="Species" OID="CL.SPECIES.17444">
        <EnumeratedItem CodedValue="RAT">
          <Alias Context="nci:ExtCodeID" Name="C14266"/>
        </EnumeratedItem>
        <Alias Context="nci:ExtCodeID" Name="C77808"/>
      </CodeList>
      <CodeList DataType="text" Name="Standardized Disposition Term" OID="CL.DSDECOD.17446">
        <EnumeratedItem CodedValue="MORIBUND SACRIFICE">
          <Alias Context="nci:ExtCodeID" Name="C90425"/>
        </EnumeratedItem>
        <EnumeratedItem CodedValue="TERMINAL SACRIFICE">
          <Alias Context="nci:ExtCodeID" Name="C90465"/>
        </EnumeratedItem>
        <EnumeratedItem CodedValue="RECOVERY SACRIFICE">
          <Alias Context="nci:ExtCodeID" Name="C90445"/>
        </EnumeratedItem>
        <Alias Context="nci:ExtCodeID" Name="C89968"/>
      </CodeList>
      <CodeList DataType="text" Name="Strain/Substrain" OID="CL.STRAIN.17447">
        <EnumeratedItem CodedValue="SPRAGUE-DAWLEY">
          <Alias Context="nci:ExtCodeID" Name="C76189"/>
        </EnumeratedItem>
        <Alias Context="nci:ExtCodeID" Name="C77530"/>
      </CodeList>
      <CodeList DataType="text" Name="Study Category" OID="CL.STCAT.17448">
        <EnumeratedItem CodedValue="TOX">
          <Alias Context="nci:ExtCodeID" Name="C17206"/>
        </EnumeratedItem>
        <Alias Context="nci:ExtCodeID" Name="C90002"/>
      </CodeList>
      <CodeList DataType="text" Name="Study Design" OID="CL.SDESIGN.17449">
        <EnumeratedItem CodedValue="PARALLEL">
          <Alias Context="nci:ExtCodeID" Name="C82639"/>
        </EnumeratedItem>
        <Alias Context="nci:ExtCodeID" Name="C89967"/>
      </CodeList>
      <CodeList DataType="text" Name="Study Type" OID="CL.SSTYP.17450">
        <EnumeratedItem CodedValue="REPEAT DOSE TOXICITY">
          <Alias Context="nci:ExtCodeID" Name="C79376"/>
        </EnumeratedItem>
        <Alias Context="nci:ExtCodeID" Name="C90003"/>
      </CodeList>
      <CodeList DataType="text" Name="Tumor Findings Test Code" OID="CL.TFTESTCD.17451">
        <CodeListItem CodedValue="TUMEX">
          <Decode>
            <TranslatedText xml:lang="en">Tumor Examination</TranslatedText>
          </Decode>
          <Alias Context="nci:ExtCodeID" Name="C90479"/>
        </CodeListItem>
        <Alias Context="nci:ExtCodeID" Name="C90006"/>
      </CodeList>
      <CodeList DataType="text" Name="Tumor Findings Test Name" OID="CL.TFTEST.17451">
        <EnumeratedItem CodedValue="Tumor Examination">
          <Alias Context="nci:ExtCodeID" Name="C90479"/>
        </EnumeratedItem>
        <Alias Context="nci:ExtCodeID" Name="C90005"/>
      </CodeList>
      <CodeList DataType="text" Name="Unit" OID="CL.UNIT.17452">
        <EnumeratedItem CodedValue="C">
          <Alias Context="nci:ExtCodeID" Name="C42559"/>
        </EnumeratedItem>
        <EnumeratedItem CodedValue="%">
          <Alias Context="nci:ExtCodeID" Name="C25613"/>
        </EnumeratedItem>
        <EnumeratedItem CodedValue="g">
          <Alias Context="nci:ExtCodeID" Name="C48155"/>
        </EnumeratedItem>
        <EnumeratedItem CodedValue="msec">
          <Alias Context="nci:ExtCodeID" Name="C41140"/>
        </EnumeratedItem>
        <EnumeratedItem CodedValue="mg/kg">
          <Alias Context="nci:ExtCodeID" Name="C67401"/>
        </EnumeratedItem>
        <EnumeratedItem CodedValue="g/day">
          <Alias Context="nci:ExtCodeID" Name="C67372"/>
        </EnumeratedItem>
        <EnumeratedItem CodedValue="g/dL">
          <Alias Context="nci:ExtCodeID" Name="C64783"/>
        </EnumeratedItem>
        <EnumeratedItem CodedValue="U/L">
          <Alias Context="nci:ExtCodeID" Name="C67456"/>
        </EnumeratedItem>
        <EnumeratedItem CodedValue="sec">
          <Alias Context="nci:ExtCodeID" Name="C42535"/>
        </EnumeratedItem>
        <EnumeratedItem CodedValue="10^9/L">
          <Alias Context="nci:ExtCodeID" Name="C67255"/>
        </EnumeratedItem>
        <EnumeratedItem CodedValue="mg/dL">
          <Alias Context="nci:ExtCodeID" Name="C67015"/>
